# Column 1: perturbance scale factor x
# Column 2: wave number k
# Column 3-130: columns running trought different k, rows trought different x
#evaluated at a = 1.000000
0.001 0.01 25361.9 26032.9 26676 27286.8 27861.3 28395.8 28886.2 29328.8 29720.3 30058.7 30340.9 30564.6 30727.9 30831 30872.2 30850.5 30765.8 30620.2 30413.7 30146.2 29818.8 29435.5 28998 28506.3 27962.9 27373 26740.6 26065.2 25350.2 24601.9 23827.4 23024.6 22197.6 21353.3 20502.5 19640.3 18771 17901 17045.4 16194.7 15353 14524.5 13729 12951.5 12194.5 11460.5 10770.6 10107.2 9470.16 8860.5 8297.79 7765.41 7259.6 6780.6 6345.4 5940.45 5558.98 5200.37 4878.54 4584.6 4309.43 4052.29 3823.26 3618.47 3427.99 3251.23 3093.85 2956 2829.18 2712.95 2608.78 2517.75 2435.95 2363.03 2297.31 2235.55 2182.3 2137.47 2097.85 2050.15 2010.95 1980.21 1955.92 1909.51 1871.7 1842.45 1821.84 1768.79 1723.01 1685.68 1656.71 1596.3 1538.55 1488.94 1447.28 1380.85 1313.31 1253.69 1201.47 1133.63 1062.99 999.887 943.674 880.164 814.051 754.84 701.857 647.294 591.265 541.182 496.418 453.057 409.398 370.523 335.896 303.688 271.944 243.801 218.845 196.241 174.42 155.156 138.146 123.008 108.668 96.0569 84.9644 75.2054 
0.0010559 0.010559 26061.1 26750.6 27411.4 28039.1 28629.4 29178.7 29682.6 30137.4 30539.6 30887.4 31177.4 31407.2 31575 31681 31723.3 31701 31614 31464.4 31252.2 30977.3 30640.9 30247 29797.4 29292.2 28733.8 28127.6 27477.8 26783.8 26049.1 25280.2 24484.3 23659.4 22809.5 21942 21067.7 20181.7 19288.5 18394.5 17515.3 16641.2 15776.3 14924.9 14107.5 13308.5 12530.7 11776.4 11067.5 10385.8 9731.25 9104.77 8526.55 7979.49 7459.74 6967.54 6520.33 6104.22 5712.23 5343.74 5013.04 4710.99 4428.24 4164.01 3928.67 3718.23 3522.5 3340.86 3179.15 3037.49 2907.18 2787.74 2680.7 2587.16 2503.11 2428.17 2360.64 2297.18 2242.47 2196.4 2155.69 2106.67 2066.39 2034.81 2009.84 1962.16 1923.3 1893.24 1872.06 1817.56 1770.52 1732.15 1702.39 1640.31 1580.97 1529.99 1487.18 1418.91 1349.52 1288.26 1234.59 1164.88 1092.3 1027.45 969.691 904.429 836.493 775.651 721.207 665.139 607.566 556.102 510.104 465.548 420.685 380.738 345.156 312.06 279.441 250.522 224.878 201.651 179.228 159.434 141.954 126.399 111.664 98.7051 87.3068 77.2787 
0.00111492 0.0111492 26779.6 27488.1 28167.1 28812.1 29418.6 29983.1 30500.9 30968.2 31381.6 31739 32036.9 32273.1 32445.5 32554.4 32597.9 32575 32485.6 32331.8 32113.8 31831.3 31485.6 31080.9 30618.9 30099.8 29526 28903.1 28235.4 27522.2 26767.2 25977.1 25159.3 24311.6 23438.4 22546.9 21648.6 20738.1 19820.3 18901.7 17998.2 17100 16211.2 15336.3 14496.4 13675.4 12876.1 12101.1 11372.7 10672.2 9999.53 9355.78 8761.62 8199.48 7665.4 7159.63 6700.09 6272.51 5869.71 5491.06 5151.24 4840.87 4550.32 4278.81 4036.98 3820.73 3619.61 3432.97 3266.79 3121.23 2987.33 2864.59 2754.6 2658.49 2572.12 2495.11 2425.72 2360.51 2304.29 2256.95 2215.12 2164.75 2123.35 2090.9 2065.25 2016.25 1976.32 1945.44 1923.68 1867.66 1819.33 1779.91 1749.32 1685.53 1624.55 1572.17 1528.18 1458.03 1386.73 1323.77 1268.63 1196.99 1122.41 1055.78 996.424 929.364 859.555 797.034 741.09 683.477 624.316 571.434 524.167 478.382 432.283 391.234 354.672 320.663 287.145 257.429 231.078 207.21 184.17 163.829 145.868 129.884 114.742 101.426 89.7137 79.4092 
0.00117724 0.0117724 27517.9 28245.9 28943.7 29606.4 30229.7 30809.7 31341.8 31822 32246.8 32614 32920.2 33162.8 33340 33451.9 33496.6 33473.1 33381.2 33223.2 32999.2 32708.9 32353.7 31937.8 31463.1 30929.6 30340 29699.9 29013.8 28281 27505.2 26693.3 25853 24981.9 24084.5 23168.5 22245.4 21309.9 20366.7 19422.8 18494.4 17571.4 16658.2 15759.2 14896.1 14052.4 13231.1 12434.7 11686.2 10966.4 10275.2 9613.71 9003.17 8425.53 7876.72 7357.01 6884.81 6445.44 6031.54 5642.44 5293.26 4974.33 4675.77 4396.77 4148.27 3926.07 3719.4 3527.61 3356.86 3207.28 3069.69 2943.57 2830.54 2731.78 2643.03 2563.9 2492.6 2425.59 2367.82 2319.17 2276.19 2224.43 2181.89 2148.55 2122.19 2071.84 2030.81 1999.07 1976.71 1919.15 1869.48 1828.98 1797.55 1732 1669.34 1615.52 1570.31 1498.23 1424.96 1360.27 1303.61 1229.99 1153.36 1084.89 1023.89 954.985 883.252 819.008 761.521 702.32 641.527 587.187 538.618 491.571 444.2 402.02 364.45 329.504 295.061 264.526 237.449 212.923 189.247 168.346 149.889 133.464 117.906 104.223 92.1871 81.5985 
0.00124305 0.0124305 28276.5 29024.6 29741.6 30422.7 31063.1 31659.1 32205.9 32699.3 33135.8 33513.1 33827.8 34077.1 34259.2 34374.1 34420.1 34395.9 34301.5 34139.1 33908.9 33610.6 33245.6 32818.2 32330.5 31782.3 31176.4 30518.7 29813.7 29060.7 28263.4 27429.2 26565.7 25670.6 24748.5 23807.3 22858.7 21897.4 20928.2 19958.2 19004.2 18055.9 17117.4 16193.6 15306.8 14439.8 13595.9 12777.5 12008.4 11268.7 10558.5 9878.75 9251.38 8657.81 8093.88 7559.84 7074.62 6623.13 6197.82 5798 5439.19 5111.46 4804.67 4517.98 4262.64 4034.31 3821.94 3624.87 3449.4 3295.7 3154.32 3024.72 2908.58 2807.09 2715.9 2634.59 2561.32 2492.46 2433.1 2383.11 2338.94 2285.76 2242.05 2207.78 2180.69 2128.96 2086.8 2054.18 2031.21 1972.06 1921.02 1879.4 1847.1 1779.75 1715.36 1660.05 1613.6 1539.53 1464.24 1397.77 1339.54 1263.9 1185.16 1114.79 1052.12 981.313 907.602 841.587 782.515 721.682 659.214 603.376 553.467 505.123 456.447 413.104 374.498 338.588 303.196 271.819 243.995 218.793 194.464 172.987 154.022 137.144 121.156 107.096 94.7286 83.848 
0.00131253 0.0131253 29056.1 29824.8 30561.6 31261.4 31919.5 32531.9 33093.8 33600.8 34049.3 34437 34760.4 35016.6 35203.7 35321.8 35369 35344.2 35247.1 35080.3 34843.8 34537.2 34162.2 33723 33221.8 32658.5 32035.9 31360.1 30635.6 29861.9 29042.6 28185.4 27298.1 26378.3 25430.8 24463.6 23488.9 22501 21505.2 20508.4 19528.2 18553.6 17589.3 16640.1 15728.8 14837.9 13970.7 13129.8 12339.4 11579.4 10849.6 10151.1 9506.43 8896.5 8317.02 7768.25 7269.66 6805.73 6368.69 5957.84 5589.14 5252.38 4937.14 4642.54 4380.15 4145.53 3927.31 3724.8 3544.5 3386.56 3241.28 3108.11 2988.77 2884.48 2790.77 2707.22 2631.93 2561.18 2500.17 2448.81 2403.42 2348.77 2303.86 2268.65 2240.81 2187.65 2144.33 2110.82 2087.2 2026.43 1973.99 1931.21 1898.03 1828.82 1762.65 1705.82 1658.09 1581.98 1504.61 1436.3 1376.47 1298.75 1217.83 1145.53 1081.13 1008.37 932.624 864.789 804.089 741.578 677.388 620.01 568.726 519.049 469.03 424.493 384.822 347.922 311.555 279.312 250.722 224.825 199.826 177.756 158.268 140.925 124.496 110.048 97.3401 86.1597 
0.0013859 0.013859 29857.1 30647 31404.1 32123.2 32799.5 33428.8 34006.1 34527.1 34988 35386.4 35718.7 35981.9 36174.2 36295.5 36344.1 36318.6 36218.9 36047.5 35804.4 35489.4 35104 34652.7 34137.7 33558.9 32919.1 32224.7 31480.2 30685.1 29843.3 28962.5 28050.7 27105.5 26131.9 25138.1 24136.4 23121.4 22098 21073.8 20066.5 19065.1 18074.2 17098.8 16162.4 15247 14355.9 13491.7 12679.6 11898.6 11148.7 10431 9768.51 9141.77 8546.31 7982.42 7470.07 6993.36 6544.27 6122.1 5743.23 5397.19 5073.25 4770.53 4500.91 4259.82 4035.58 3827.49 3642.22 3479.93 3330.64 3193.8 3071.16 2964.01 2867.71 2781.86 2704.49 2631.79 2569.1 2516.32 2469.68 2413.53 2367.37 2331.19 2302.59 2247.96 2203.45 2169.01 2144.75 2082.3 2028.41 1984.46 1950.35 1879.23 1811.25 1752.85 1703.8 1625.59 1546.09 1475.9 1414.42 1334.55 1251.4 1177.11 1110.93 1036.17 958.336 888.631 826.257 762.023 696.063 637.103 584.405 533.358 481.961 436.195 395.431 357.514 320.144 287.013 257.634 231.023 205.335 182.656 162.631 144.81 127.929 113.082 100.024 88.535 
0.00146337 0.0146337 30680.2 31492 32269.9 33008.8 33703.7 34350.4 34943.7 35479 35952.6 36362 36703.4 36973.9 37171.5 37296.2 37346.1 37319.8 37217.4 37041.3 36791.5 36467.8 36071.8 35608.1 35078.8 34484.1 33826.7 33113.1 32348.1 31531.1 30666.1 29760.9 28824 27852.8 26852.4 25831.1 24801.9 23758.8 22707.3 21654.8 20619.8 19590.8 18572.5 17570.2 16608 15667.4 14751.6 13863.7 13029.2 12226.7 11456 10718.5 10037.8 9393.8 8781.93 8202.49 7676.02 7186.16 6724.69 6290.88 5901.57 5545.98 5213.11 4902.05 4625 4377.26 4146.84 3933.01 3742.63 3575.87 3422.46 3281.85 3155.83 3045.72 2946.77 2858.55 2779.05 2704.34 2639.93 2585.7 2537.77 2480.06 2432.64 2395.46 2366.07 2309.94 2264.19 2228.81 2203.87 2139.71 2084.33 2039.16 2004.12 1931.04 1861.18 1801.17 1750.77 1670.41 1588.71 1516.59 1453.42 1371.35 1285.9 1209.56 1141.56 1064.73 984.756 913.129 849.036 783.031 715.252 654.668 600.517 548.063 495.248 448.221 406.333 367.371 328.97 294.926 264.736 237.392 210.996 187.692 167.115 148.802 131.456 116.2 102.781 90.9758 
0.00154517 0.0154517 31526.1 32360.2 33159.5 33918.9 34632.9 35297.4 35907 36457.2 36943.8 37364.5 37715.3 37993.3 38196.3 38324.4 38375.6 38348.7 38243.4 38062.4 37805.8 37473.2 37066.3 36589.8 36045.9 35434.8 34759.2 34026 33239.9 32400.4 31511.5 30581.4 29618.7 28620.7 27592.7 26543.2 25485.6 24413.8 23333.3 22251.8 21188.2 20130.9 19084.6 18054.6 17065.8 16099.3 15158.3 14245.9 13388.4 12563.7 11771.9 11014 10314.6 9652.78 9024.04 8428.62 7887.64 7384.27 6910.08 6464.31 6064.27 5698.88 5356.83 5037.2 4752.5 4497.93 4261.16 4041.44 3845.81 3674.45 3516.82 3372.32 3242.84 3129.69 3028.01 2937.36 2855.66 2778.9 2712.71 2656.98 2607.73 2548.44 2499.7 2461.5 2431.3 2373.62 2326.61 2290.25 2264.63 2198.69 2141.79 2095.38 2059.38 1984.28 1912.49 1850.83 1799.04 1716.46 1632.51 1558.4 1493.49 1409.15 1321.35 1242.91 1173.03 1094.09 1011.91 938.303 872.443 804.618 734.971 672.716 617.072 563.172 508.902 460.578 417.535 377.499 338.04 303.056 272.035 243.937 216.812 192.867 171.722 152.905 135.08 119.403 105.615 93.484 
0.00163154 0.0163154 32395.2 33252.3 34073.7 34854 35587.7 36270.5 36896.9 37462.2 37962.3 38394.6 38755 39040.7 39249.3 39381 39433.6 39405.9 39297.8 39111.8 38848 38506.3 38088.1 37598.5 37039.7 36411.7 35717.5 34964 34156.3 33293.6 32380.3 31424.5 30435.2 29409.7 28353.4 27275 26188.2 25086.9 23976.6 22865.3 21772.4 20685.8 19610.7 18552.4 17536.3 16543.1 15576.2 14638.7 13757.5 12910.1 12096.4 11317.7 10598.9 9918.9 9272.82 8660.99 8105.09 7587.85 7100.58 6642.53 6231.45 5855.99 5504.52 5176.07 4883.52 4621.94 4378.64 4152.86 3951.84 3775.75 3613.77 3465.3 3332.24 3215.97 3111.49 3018.34 2934.39 2855.51 2787.5 2730.23 2679.62 2618.7 2568.62 2529.36 2498.33 2439.06 2390.76 2353.39 2327.07 2259.31 2200.84 2153.15 2116.15 2038.98 1965.22 1901.86 1848.64 1763.78 1677.52 1601.36 1534.66 1448 1357.78 1277.17 1205.37 1124.25 1039.8 964.172 896.495 826.801 755.234 691.262 634.084 578.698 522.932 473.276 429.046 387.906 347.359 311.411 279.535 250.662 222.79 198.184 176.456 157.12 138.804 122.695 108.527 96.0612 
0.00172274 0.0172274 33288.3 34169 35013.1 35814.9 36568.8 37270.5 37914.2 38495 39008.9 39453.1 39823.5 40117 40331.4 40466.7 40520.8 40492.3 40381.2 40190.1 39919 39567.9 39138.2 38635.1 38060.8 37415.5 36702.2 35928 35098 34211.5 33273 32290.9 31274.3 30220.5 29135 28026.9 26910.2 25778.5 24637.6 23495.7 22372.6 21256.1 20151.3 19063.8 18019.8 16999.2 16005.7 15042.2 14136.8 13266 12429.9 11629.7 10891.1 10192.4 9528.46 8899.77 8328.54 7797.04 7296.34 6825.65 6403.25 6017.44 5656.27 5318.77 5018.16 4749.36 4499.35 4267.35 4060.79 3879.85 3713.4 3560.83 3424.11 3304.63 3197.27 3101.55 3015.29 2934.23 2864.35 2805.5 2753.5 2690.89 2639.43 2599.1 2567.21 2506.3 2456.67 2418.27 2391.22 2321.6 2261.51 2212.51 2174.49 2095.2 2019.4 1954.29 1899.6 1812.41 1723.77 1645.51 1576.97 1487.92 1395.22 1312.38 1238.6 1155.24 1068.47 990.753 921.211 849.595 776.055 710.32 651.566 594.653 537.349 486.324 440.875 398.6 356.935 319.997 287.241 257.573 228.932 203.647 181.321 161.452 142.63 126.078 111.519 98.7095 
0.00181904 0.0181904 34206 35111.1 35978.4 36802.3 37577 38298 38959.4 39556.3 40084.3 40540.8 40921.4 41223 41443.3 41582.3 41637.9 41608.7 41494.5 41298.1 41019.6 40658.7 40217.2 39700.2 39110.1 38447 37714.1 36918.5 36065.6 35154.7 34190.3 33181.1 32136.5 31053.7 29938.3 28799.6 27652.1 26489.2 25316.8 24143.4 22989.4 21842.1 20706.9 19589.4 18516.6 17467.9 16446.9 15456.9 14526.5 13631.8 12772.6 11950.3 11191.4 10473.3 9791.15 9145.12 8558.15 8012 7497.49 7013.83 6579.78 6183.33 5812.21 5465.4 5156.51 4880.3 4623.4 4384.99 4172.74 3986.81 3815.77 3659 3518.51 3395.74 3285.42 3187.06 3098.42 3015.13 2943.31 2882.85 2829.41 2765.08 2712.2 2670.75 2637.98 2575.4 2524.4 2484.94 2457.15 2385.6 2323.86 2273.51 2234.44 2152.96 2075.07 2008.17 1951.97 1862.37 1771.29 1690.88 1620.45 1528.94 1433.68 1348.57 1272.75 1187.09 1097.93 1018.07 946.608 873.018 797.45 729.903 669.529 611.047 552.163 499.731 453.029 409.589 366.776 328.819 295.16 264.674 235.243 209.262 186.32 165.903 146.563 129.554 114.593 101.431 
0.00192072 0.0192072 35149.1 36079 36970.3 37816.9 38613 39353.8 40033.5 40646.8 41189.4 41658.4 42049.6 42359.5 42585.8 42728.7 42785.8 42755.8 42638.4 42436.6 42150.5 41779.6 41325.9 40794.7 40188.4 39507 38753.8 37936.3 37059.9 36123.8 35132.9 34095.9 33022.5 31909.8 30763.6 29593.6 28414.5 27219.5 26014.8 24809 23623.2 22444.3 21277.8 20129.5 19027.1 17949.4 16900.3 15883.1 14927 14007.6 13124.7 12279.8 11499.9 10762.1 10061.1 9397.25 8794.09 8232.88 7704.19 7207.2 6761.18 6353.8 5972.45 5616.08 5298.67 5014.84 4750.86 4505.89 4287.78 4096.72 3920.97 3759.87 3615.51 3489.36 3375.99 3274.92 3183.84 3098.25 3024.46 2962.32 2907.41 2841.31 2786.97 2744.38 2710.71 2646.4 2593.99 2553.45 2524.89 2451.37 2387.93 2336.19 2296.04 2212.32 2132.28 2063.53 2005.79 1913.72 1820.12 1737.49 1665.12 1571.09 1473.21 1385.74 1307.84 1219.82 1128.19 1046.13 972.705 897.086 819.435 750.026 687.987 627.893 567.385 513.508 465.519 420.881 376.887 337.884 303.298 271.971 241.729 215.031 191.457 170.477 150.603 133.125 117.752 104.227 
0.00202809 0.0202809 36118.1 37073.7 37989.5 38859.4 39677.5 40438.8 41137.2 41767.4 42324.9 42806.9 43208.8 43527.3 43759.9 43906.7 43965.4 43934.5 43813.9 43606.6 43312.5 42931.5 42465.3 41919.4 41296.3 40596.1 39822.2 38982.1 38081.6 37119.7 36101.4 35035.9 33932.9 32789.5 31611.8 30409.5 29197.8 27969.9 26732 25493 24274.5 23063.1 21864.4 20684.4 19551.6 18444.3 17366.3 16321 15338.5 14393.8 13486.6 12618.3 11817 11058.8 10338.5 9656.32 9036.54 8459.85 7916.59 7405.89 6947.58 6528.97 6137.1 5770.91 5444.74 5153.1 4881.84 4630.11 4405.99 4209.66 4029.07 3863.53 3715.18 3585.55 3469.07 3365.21 3271.62 3183.67 3107.84 3043.99 2987.57 2919.64 2863.81 2820.04 2785.44 2719.36 2665.51 2623.85 2594.5 2518.95 2453.76 2400.59 2359.34 2273.31 2191.06 2120.42 2061.08 1966.48 1870.3 1785.4 1711.03 1614.41 1513.82 1423.95 1343.9 1253.45 1159.3 1074.98 999.522 921.818 842.026 770.703 706.954 645.203 583.028 527.665 478.353 432.484 387.278 347.199 311.659 279.469 248.393 220.959 196.735 175.176 154.755 136.796 120.999 107.101 
0.00214145 0.0214145 37113.9 38095.8 39036.9 39930.8 40771.3 41553.7 42271.3 42918.9 43491.8 43987.1 44400.1 44727.3 44966.3 45117.1 45177.5 45145.8 45021.8 44808.8 44506.6 44115.1 43636 43075 42434.8 41715.3 40920.1 40056.8 39131.5 38143.1 37096.7 36001.8 34868.4 33693.5 32483.3 31247.8 30002.8 28741 27468.9 26195.8 24943.7 23698.9 22467.2 21254.7 20090.6 18952.8 17845 16770.9 15761.4 14790.6 13858.4 12966.2 12142.7 11363.7 10623.5 9922.54 9285.67 8693.08 8134.84 7610.07 7139.12 6708.97 6306.3 5930 5594.85 5295.16 5016.42 4757.76 4527.46 4325.72 4140.15 3970.05 3817.61 3684.4 3564.7 3457.98 3361.81 3271.44 3193.52 3127.91 3069.93 3000.13 2942.76 2897.79 2862.23 2794.33 2738.99 2696.19 2666.02 2588.4 2521.41 2466.77 2424.39 2335.98 2251.47 2178.88 2117.91 2020.69 1921.87 1834.62 1758.2 1658.92 1555.56 1463.2 1380.95 1288.01 1191.26 1104.61 1027.08 947.232 865.24 791.951 726.444 662.991 599.101 542.212 491.541 444.408 397.955 356.771 320.251 287.173 255.241 227.051 202.159 180.006 159.022 140.567 124.334 110.053 
0.00226116 0.0226116 38137 39146.1 40113.1 41031.6 41895.4 42699.3 43436.7 44102.2 44690.8 45199.7 45624.1 45960.4 46206 46361 46423 46390.4 46263 46044.1 45733.6 45331.3 44839 44262.6 43604.7 42865.4 42048.2 41161.2 40210.3 39194.7 38119.4 36994.3 35829.6 34622.4 33378.8 32109.3 30829.9 29533.4 28226.2 26918 25631.4 24352.3 23086.6 21840.6 20644.5 19475.3 18337 17233.3 16195.9 15198.3 14240.4 13323.7 12477.5 11677 10916.4 10196.1 9541.67 8932.74 8359.11 7819.87 7335.94 6893.93 6480.15 6093.49 5749.1 5441.14 5154.72 4888.92 4652.27 4444.98 4254.29 4079.5 3922.86 3785.98 3662.98 3553.32 3454.49 3361.63 3281.56 3214.15 3154.57 3082.84 3023.89 2977.68 2941.14 2871.36 2814.5 2770.52 2739.52 2659.76 2590.92 2534.78 2491.22 2400.38 2313.54 2238.95 2176.29 2076.4 1974.85 1885.2 1806.67 1704.65 1598.44 1503.54 1419.02 1323.52 1224.1 1135.06 1055.39 973.346 889.094 813.784 746.472 681.269 615.618 557.161 505.092 456.66 408.926 366.607 329.08 295.09 262.278 233.31 207.732 184.968 163.406 144.442 127.762 113.087 
0.00238755 0.0238755 39188.4 40225.3 41218.9 42162.8 43050.4 43876.4 44634.2 45318 45922.9 46445.9 46881.9 47227.5 47479.8 47639.1 47702.8 47669.3 47538.5 47313.5 46994.4 46581 46075.2 45482.9 44806.9 44047.2 43207.4 42296 41318.8 40275.2 39170.4 38014.2 36817.4 35576.9 34299 32994.5 31679.9 30347.6 29004.4 27660.1 26338 25023.6 23723 22442.8 21213.7 20012.2 18842.6 17708.4 16642.4 15617.3 14633 13691 12821.5 11998.9 11217.3 10477.2 9804.72 9179.01 8589.57 8035.46 7538.18 7083.99 6658.81 6261.48 5907.59 5591.15 5296.83 5023.71 4780.53 4567.52 4371.57 4191.96 4031.01 3890.36 3763.97 3651.28 3549.73 3454.31 3372.03 3302.76 3241.54 3167.83 3107.25 3059.77 3022.22 2950.52 2892.1 2846.9 2815.05 2733.09 2662.35 2604.66 2559.91 2466.56 2377.32 2300.67 2236.29 2133.64 2029.29 1937.17 1856.48 1751.65 1642.51 1545 1458.14 1360 1257.85 1166.36 1084.49 1000.18 913.605 836.219 767.051 700.051 632.59 572.521 519.017 469.249 420.2 376.714 338.153 303.226 269.509 239.743 213.459 190.068 167.911 148.424 131.284 116.205 
0.00252101 0.0252101 40268.8 41334.2 42355.3 43325.2 44237.3 45086.1 45864.7 46567.4 47189 47726.3 48174.4 48529.5 48788.8 48952.5 49017.9 48983.5 48849.1 48617.9 48290 47865.2 47345.4 46736.8 46042.1 45261.5 44398.6 43462 42458 41385.6 40250.2 39062.2 37832.5 36557.7 35244.6 33904.2 32553.3 31184.2 29804 28422.7 27064.1 25713.5 24377.1 23061.5 21798.5 20563.9 19362 18196.6 17101.3 16047.9 15036.4 14068.4 13175 12329.7 11526.6 10766 10075 9432.07 8826.37 8256.99 7746 7279.28 6842.38 6434.1 6070.46 5745.29 5442.86 5162.21 4912.33 4693.44 4492.09 4307.53 4142.14 3997.61 3867.73 3751.94 3647.59 3549.54 3464.99 3393.81 3330.9 3255.17 3192.92 3144.12 3105.54 3031.87 2971.83 2925.38 2892.66 2808.43 2735.75 2676.47 2630.48 2534.56 2442.86 2364.1 2297.94 2192.47 2085.24 1990.58 1907.66 1799.94 1687.79 1587.59 1498.34 1397.5 1292.53 1198.51 1114.39 1027.75 938.793 859.273 788.198 719.351 650.03 588.305 533.326 482.186 431.784 387.1 347.475 311.585 276.939 246.352 219.344 195.308 172.54 152.516 134.904 119.409 
0.00266193 0.0266193 41379 42473.8 43523 44519.6 45456.8 46329 47129.2 47851.2 48489.9 49042.1 49502.6 49867.4 50133.9 50302.1 50369.3 50334 50195.8 49958.2 49621.3 49184.8 48650.7 48025.3 47311.5 46509.3 45622.7 44660.2 43628.5 42526.6 41359.9 40139.1 38875.5 37565.6 36216.3 34838.9 33450.7 32044 30625.7 29206.3 27810.2 26422.4 25049.1 23697.3 22399.5 21130.9 19895.8 18698.2 17572.7 16490.3 15451 14456.3 13538.2 12669.6 11844.3 11062.8 10352.8 9692.1 9069.71 8484.62 7959.55 7479.97 7031.02 6611.49 6237.82 5903.69 5592.92 5304.52 5047.76 4822.84 4615.94 4426.29 4256.33 4107.82 3974.36 3855.38 3748.15 3647.4 3560.52 3487.38 3422.73 3344.91 3280.94 3230.8 3191.16 3115.45 3053.76 3006.03 2972.41 2885.86 2811.17 2750.26 2703 2604.43 2510.21 2429.28 2361.3 2252.91 2142.73 2045.45 1960.25 1849.56 1734.32 1631.36 1539.65 1436.03 1328.16 1231.55 1145.11 1056.09 964.674 882.962 809.928 739.182 667.951 604.524 548.029 495.479 443.688 397.772 357.055 320.176 284.574 253.144 225.391 200.692 177.297 156.721 138.623 122.701 
0.00281073 0.0281073 42519.8 43644.8 44722.9 45747 46710 47606.3 48428.5 49170.4 49826.8 50394.2 50867.3 51242.2 51516 51688.8 51757.9 51721.6 51579.6 51335.5 50989.4 50540.8 49991.9 49349.3 48615.8 47791.5 46880.4 45891.5 44831.3 43699 42500.2 41245.7 39947.2 38601.3 37214.7 35799.3 34372.9 32927.4 31470 30011.5 28577 27150.9 25739.7 24350.6 23017 21713.4 20444.3 19213.7 18057.2 16945 15877 14854.8 13911.4 13018.9 12170.9 11367.8 10638.2 9959.3 9319.75 8718.54 8178.99 7686.18 7224.86 6793.76 6409.79 6066.45 5747.11 5450.76 5186.92 4955.8 4743.19 4548.32 4373.67 4221.07 4083.93 3961.67 3851.49 3747.95 3658.68 3583.52 3517.1 3437.13 3371.4 3319.88 3279.14 3201.34 3137.95 3088.91 3054.35 2965.42 2888.67 2826.08 2777.52 2676.24 2579.42 2496.25 2426.4 2315.02 2201.8 2101.84 2014.29 1900.55 1782.14 1676.33 1582.09 1475.62 1364.78 1265.51 1176.68 1085.2 991.269 907.305 832.257 759.561 686.365 621.19 563.138 509.139 455.92 408.738 366.899 329.002 292.419 260.123 231.605 206.225 182.184 161.042 142.445 126.084 
0.00296784 0.0296784 43692 44848 45955.9 47008.2 47997.8 48918.8 49763.6 50526 51200.4 51783.5 52269.7 52654.9 52936.3 53113.9 53184.9 53147.5 53001.6 52750.8 52395.1 51934.1 51370.2 50709.8 49956.1 49109.1 48172.9 47156.7 46067.2 44903.7 43671.9 42382.8 41048.5 39665.5 38240.7 36786.3 35320.6 33835.2 32337.6 30838.9 29364.8 27899.4 26449.3 25021.9 23651.6 22312 21008 19743.4 18555 17412.1 16314.7 15264.4 14295 13377.8 12506.4 11681.2 10931.5 10233.9 9576.69 8958.9 8404.48 7898.09 7424.04 6981.06 6586.5 6233.69 5905.55 5601.04 5329.92 5092.43 4873.96 4673.71 4494.25 4337.44 4196.52 4070.89 3957.67 3851.28 3759.55 3682.31 3614.06 3531.88 3464.34 3411.4 3369.54 3289.6 3224.46 3174.07 3138.56 3047.17 2968.31 2903.99 2854.09 2750.02 2650.53 2565.07 2493.29 2378.84 2262.5 2159.79 2069.82 1952.95 1831.27 1722.55 1625.71 1516.3 1402.4 1300.4 1209.12 1115.12 1018.6 932.319 855.201 780.501 705.288 638.316 578.663 523.176 468.49 420.006 377.014 338.073 300.481 267.294 237.99 211.911 187.207 165.481 146.372 129.56 
0.00313374 0.0313374 44896.6 46084.4 47222.8 48304.2 49321 50267.4 51135.5 51919 52612 53211.1 53710.7 54106.6 54395.7 54578.2 54651.1 54612.8 54462.9 54205.1 53839.6 53365.9 52786.4 52107.8 51333.4 50463 49501 48456.7 47337.3 46141.7 44875.9 43551.3 42180.2 40759 39295 37800.5 36294.3 34768 33229.1 31689.1 30174.4 28668.5 27178.5 25711.7 24303.6 22927.2 21587.1 20287.7 19066.5 17892.1 16764.4 15685.2 14689.1 13746.6 12851.2 12003.3 11232.9 10516 9840.71 9205.89 8636.18 8115.83 7628.72 7173.52 6768.08 6405.55 6068.36 5755.45 5476.86 5232.82 5008.33 4802.56 4618.16 4457.02 4312.22 4183.12 4066.78 3957.45 3863.2 3783.83 3713.7 3629.25 3559.85 3505.45 3462.44 3380.29 3313.35 3261.57 3225.09 3131.18 3050.15 2984.05 2932.78 2825.83 2723.6 2635.78 2562.03 2444.43 2324.88 2219.33 2126.89 2006.79 1881.75 1770.04 1670.53 1558.1 1441.06 1336.25 1242.45 1145.86 1046.68 958.022 878.779 802.019 724.732 655.914 594.616 537.599 481.405 431.586 387.408 347.393 308.765 274.663 244.551 217.753 192.368 170.044 150.407 133.131 
0.00330891 0.0330891 46134.3 47354.9 48524.7 49635.9 50680.8 51653.2 52545.3 53350.3 54062.4 54678.1 55191.4 55598.2 55895.3 56082.8 56157.8 56118.4 55964.3 55699.5 55323.9 54837.2 54241.7 53544.4 52748.6 51854.2 50865.7 49792.6 48642.3 47413.7 46113 44752 43343.1 41882.7 40378.3 38842.6 37294.9 35726.5 34145.2 32562.7 31006.2 29458.9 27927.8 26420.6 24973.7 23559.2 22182.3 20847.1 19592.2 18385.4 17226.6 16117.6 15094 14125.6 13205.5 12334.2 11542.5 10805.9 10112 9459.69 8874.27 8339.57 7839.03 7371.29 6954.67 6582.15 6235.66 5914.12 5627.85 5377.08 5146.41 4934.96 4745.47 4579.9 4431.1 4298.44 4178.9 4066.56 3969.7 3888.15 3816.08 3729.31 3657.99 3602.09 3557.89 3473.48 3404.7 3351.49 3314 3217.51 3134.23 3066.32 3013.63 2903.74 2798.69 2708.45 2632.66 2511.82 2388.97 2280.52 2185.52 2062.11 1933.63 1818.84 1716.58 1601.06 1480.79 1373.09 1276.71 1177.46 1075.54 984.433 903.006 824.13 744.712 673.997 611.009 552.42 494.677 443.484 398.088 356.97 317.277 282.235 251.293 223.756 197.672 174.732 154.554 136.802 
0.00349387 0.0349387 47406.2 48660.5 49862.5 51004.3 52078 53077.3 53993.9 54821.2 55552.9 56185.5 56713 57131 57436.3 57629 57706 57665.5 57507.2 57235.1 56849.1 56349 55737.1 55020.6 54202.8 53283.8 52268 51165.4 49983.3 48720.9 47384.3 45985.7 44538 43037.3 41491.5 39913.4 38323.1 36711.4 35086.6 33460.4 31861 30271.1 28697.7 27149 25662.2 24208.7 22793.8 21421.8 20132.3 18892.3 17701.5 16562 15510.1 14515 13569.6 12674.2 11860.8 11103.8 10390.8 9720.48 9118.93 8569.49 8055.15 7574.51 7146.41 6763.61 6407.57 6077.17 5783 5525.32 5288.29 5071.01 4876.3 4706.16 4553.26 4416.95 4294.1 4178.67 4079.14 3995.34 3921.28 3832.12 3758.84 3701.4 3655.98 3569.25 3498.56 3443.89 3405.36 3306.21 3220.64 3150.86 3096.71 2983.79 2875.84 2783.12 2705.24 2581.07 2454.83 2343.39 2245.78 2118.96 1986.94 1868.98 1763.91 1645.19 1521.62 1410.94 1311.91 1209.92 1105.19 1011.57 927.901 846.85 765.243 692.578 627.854 567.65 508.315 455.71 409.063 366.812 326.024 290.016 258.221 229.925 203.121 179.549 158.815 140.573 
0.00368917 0.0368917 48713.2 50002 51237.2 52410.4 53513.7 54540.6 55482.5 56332.5 57084.4 57734.5 58276.5 58706.1 59019.8 59217.8 59296.9 59255.3 59092.6 58813 58416.4 57902.5 57273.7 56537.4 55697.1 54752.8 53709 52575.9 51361.3 50064.1 48690.7 47253.5 45765.9 44223.8 42635.4 41013.8 39379.6 37723.5 36053.9 34382.9 32739.4 31105.6 29488.9 27897.5 26369.6 24876.2 23422.2 22012.4 20687.4 19413.1 18189.6 17018.6 15937.7 14915.2 13943.7 13023.7 12187.7 11410 10677.3 9988.46 9370.33 8805.74 8277.22 7783.33 7343.43 6950.08 6584.22 6244.71 5942.44 5677.65 5434.08 5210.82 5010.74 4835.9 4678.79 4538.72 4412.49 4293.87 4191.6 4105.49 4029.39 3937.77 3862.47 3803.44 3756.77 3667.65 3595.02 3538.83 3499.25 3397.36 3309.43 3237.72 3182.09 3066.05 2955.13 2859.85 2779.82 2652.22 2522.51 2408 2307.69 2177.38 2041.72 1920.51 1812.54 1690.55 1563.57 1449.84 1348.07 1243.27 1135.66 1039.46 953.482 870.197 786.34 711.672 645.163 583.3 522.329 468.274 420.341 376.924 335.012 298.012 265.34 236.264 208.721 184.499 163.193 144.449 
0.00389539 0.0389539 50056.1 51380.5 52649.7 53855.4 54989.1 56044.2 57012.1 57885.6 58658.2 59326.2 59883.2 60324.5 60646.9 60850.3 60931.7 60888.9 60721.8 60434.4 60026.9 59498.8 58852.7 58096.1 57232.6 56262.3 55189.7 54025.4 52777.3 51444.3 50033 48556.2 47027.6 45443.1 43810.8 42144.5 40465.3 38763.5 37047.9 35330.8 33642 31963.2 30301.9 28666.6 27096.6 25562 24067.9 22619.2 21257.7 19948.3 18691 17487.7 16377.1 15326.4 14328.1 13382.7 12523.8 11724.5 10971.6 10263.8 9628.66 9048.51 8505.42 7997.91 7545.88 7141.68 6765.74 6416.87 6106.26 5834.18 5583.89 5354.47 5148.88 4969.22 4807.78 4663.85 4534.14 4412.25 4307.16 4218.67 4140.48 4046.33 3968.95 3908.3 3860.34 3768.76 3694.13 3636.4 3595.72 3491.02 3400.67 3326.98 3269.81 3150.58 3036.6 2938.69 2856.46 2725.34 2592.06 2474.38 2371.31 2237.41 2098.01 1973.45 1862.51 1737.16 1606.67 1489.81 1385.24 1277.55 1166.97 1068.12 979.769 894.188 808.019 731.292 662.95 599.381 536.729 481.184 431.929 387.316 344.248 306.228 272.655 242.777 214.475 189.585 167.692 148.431 
0.00411314 0.0411314 51436.1 52797 54101.2 55340.1 56505.1 57589.3 58583.8 59481.4 60275.4 60961.7 61534.1 61987.6 62318.9 62527.9 62611.5 62567.6 62395.8 62100.5 61681.7 61139.1 60475.2 59697.8 58810.5 57813.4 56711.2 55514.8 54232.3 52862.6 51412.4 49894.9 48324.1 46695.9 45018.6 43306.4 41580.9 39832.2 38069.2 36304.8 34569.5 32844.4 31137.3 29456.9 27843.6 26266.7 24731.5 23242.8 21843.7 20498.3 19206.3 17969.9 16828.6 15748.9 14723.1 13751.7 12869 12047.8 11274.1 10546.8 9894.11 9297.97 8739.9 8218.4 7753.91 7338.57 6952.27 6593.78 6274.61 5995.02 5737.84 5502.09 5290.83 5106.22 4940.33 4792.42 4659.14 4533.89 4425.9 4334.98 4254.63 4157.89 4078.37 4016.05 3966.77 3872.66 3795.97 3736.65 3694.85 3587.27 3494.42 3418.71 3359.96 3237.44 3120.32 3019.71 2935.21 2800.48 2663.52 2542.6 2436.69 2299.09 2155.85 2027.86 1913.85 1785.05 1650.97 1530.88 1423.43 1312.77 1199.14 1097.57 1006.78 918.84 830.295 751.453 681.227 615.905 551.526 494.45 443.837 397.994 353.739 314.67 280.172 249.47 220.388 194.812 172.315 152.523 
0.00434305 0.0434305 52854.2 54252.6 55592.7 56865.8 58062.9 59177 60198.9 61121.3 61937.1 62642.4 63230.5 63696.6 64036.9 64251.8 64337.7 64292.5 64116 63812.6 63382.3 62824.7 62142.4 61343.6 60431.8 59407.2 58274.7 57045.3 55727.5 54320 52829.8 51270.4 49656.4 47983.2 46259.7 44500.3 42727.2 40930.3 39118.8 37305.7 35522.5 33749.8 31995.7 30269 28611.3 26990.8 25413.3 23883.6 22446 21063.4 19735.8 18465.3 17292.6 16183.1 15129 14130.8 13223.8 12379.9 11584.9 10837.6 10166.9 9554.3 8980.85 8444.98 7967.68 7540.89 7143.94 6775.56 6447.59 6160.3 5896.02 5653.78 5436.69 5246.99 5076.53 4924.55 4787.59 4658.89 4547.92 4454.49 4371.92 4272.51 4190.81 4126.77 4076.13 3979.43 3900.62 3839.66 3796.71 3686.16 3590.76 3512.96 3452.59 3326.69 3206.34 3102.96 3016.13 2877.68 2736.95 2612.7 2503.86 2362.48 2215.28 2083.76 1966.62 1834.26 1696.48 1573.09 1462.67 1348.96 1232.2 1127.82 1034.54 944.171 853.186 772.17 700.008 632.885 566.731 508.081 456.073 408.966 363.491 323.345 287.896 256.348 226.464 200.183 177.066 156.728 
0.00458582 0.0458582 54311.3 55748.3 57125.4 58433.5 59663.6 60808.4 61858.6 62806.3 63644.6 64369.4 64973.7 65452.6 65802.4 66023.1 66111.4 66065 65883.6 65571.8 65129.6 64556.7 63855.6 63034.8 62097.9 61045 59881.2 58618 57263.8 55817.5 54286.2 52683.9 51025.3 49306.1 47535.1 45727.2 43905.2 42058.7 40197.2 38334.2 36501.9 34680.3 32877.8 31103.5 29400.1 27734.9 26113.9 24542.1 23064.8 21644.1 20279.9 18974.3 17769.3 16629.3 15546.1 14520.4 13588.4 12721.2 11904.3 11136.3 10447.2 9817.7 9228.45 8677.8 8187.34 7748.78 7340.89 6962.36 6625.35 6330.13 6058.57 5809.65 5586.58 5391.65 5216.48 5060.31 4919.58 4787.33 4673.3 4577.29 4492.45 4390.3 4306.35 4240.54 4188.51 4089.14 4008.16 3945.52 3901.38 3787.79 3689.76 3609.81 3547.78 3418.4 3294.74 3188.5 3099.28 2957.02 2812.4 2684.73 2572.89 2427.61 2276.35 2141.21 2020.84 1884.83 1743.25 1616.46 1503 1386.15 1266.17 1158.92 1063.06 970.201 876.707 793.458 719.306 650.333 582.355 522.088 468.646 420.241 373.512 332.26 295.833 263.415 232.708 205.702 181.947 161.049 
0.00484216 0.0484216 55808.6 57285.2 58700.3 60044.5 61308.5 62484.8 63564 64537.8 65399.3 66144 66765 67257.1 67616.5 67843.3 67934 67886.3 67700 67379.6 66925.2 66336.4 65616.1 64772.6 63809.9 62728 61532.1 60234.1 58842.5 57356.3 55782.9 54136.4 52432.1 50665.4 48845.6 46987.8 45115.6 43218.3 41305.4 39391 37508.2 35636.4 33784.2 31960.9 30210.6 28499.6 26833.9 25218.7 23700.6 22240.8 20839 19497.5 18259.2 17087.7 15974.7 14920.7 13963 13071.9 12232.5 11443.4 10735.2 10088.4 9482.87 8917.03 8413.06 7962.41 7543.27 7154.31 6808 6504.65 6225.6 5969.81 5740.59 5540.29 5360.3 5199.82 5055.2 4919.31 4802.14 4703.49 4616.3 4511.34 4425.07 4357.45 4303.98 4201.87 4118.66 4054.29 4008.94 3892.21 3791.48 3709.32 3645.58 3512.65 3385.57 3276.41 3184.72 3038.54 2889.94 2758.74 2643.83 2494.53 2339.11 2200.24 2076.55 1936.79 1791.31 1661.02 1544.43 1424.37 1301.07 1190.87 1092.36 996.949 900.877 815.333 739.137 668.262 598.41 536.482 481.567 431.827 383.81 341.42 303.989 270.677 239.123 211.373 186.963 165.489 
0.00511283 0.0511283 57347.2 58864.5 60318.6 61699.8 62998.7 64207.5 65316.4 66317.1 67202.2 67967.5 68605.6 69111.3 69480.6 69713.7 69806.9 69757.9 69566.4 69237.2 68770.3 68165.3 67425 66558.3 65569 64457.3 63228.5 61894.7 60464.8 58937.6 57320.7 55628.9 53877.6 52062.2 50192.2 48283.2 46359.4 44409.7 42444.2 40477 38542.3 36618.9 34715.6 32842.1 31043.5 29285.3 27573.6 25913.9 24354 22854 21413.5 20035 18762.6 17558.8 16415.1 15332 14347.9 13432.3 12569.7 11758.8 11031.2 10366.5 9744.3 9162.87 8645 8181.93 7751.23 7351.54 6995.69 6683.98 6397.23 6134.4 5898.85 5693.03 5508.08 5343.17 5194.57 5054.93 4934.53 4833.16 4743.57 4635.71 4547.06 4477.58 4422.63 4317.71 4232.21 4166.07 4119.46 3999.52 3896.01 3811.59 3746.09 3609.49 3478.9 3366.73 3272.52 3122.31 2969.61 2834.8 2716.71 2563.31 2403.6 2260.9 2133.8 1990.19 1840.7 1706.81 1587.01 1463.63 1336.94 1223.7 1122.48 1024.43 925.714 837.81 759.514 686.686 614.908 551.272 494.843 443.732 394.391 350.832 312.37 278.14 245.715 217.2 192.118 170.051 
0.00539863 0.0539863 58928.2 60487.3 61981.5 63400.8 64735.5 65977.6 67117.1 68145.4 69054.9 69841.3 70497 71016.6 71396.1 71635.6 71731.4 71681 71484.3 71146 70666.2 70044.5 69283.9 68393.2 67376.7 66234.3 64971.6 63601 62131.7 60562.4 58901 57162.5 55362.9 53497.5 51575.9 49614.3 47637.5 45634.1 43614.3 41592.9 39604.8 37628.4 35672.7 33747.5 31899.3 30092.6 28333.8 26628.3 25025.5 23484 22003.9 20587.3 19279.9 18042.9 16867.6 15754.7 14743.5 13802.6 12916.3 12083 11335.3 10652.3 10012.9 9415.48 8883.33 8407.49 7964.92 7554.22 7188.55 6868.25 6573.6 6303.52 6061.48 5849.98 5659.93 5490.48 5337.78 5194.29 5070.57 4966.4 4874.35 4763.52 4672.42 4601.02 4544.56 4436.75 4348.89 4280.92 4233.03 4109.78 4003.42 3916.67 3849.37 3709 3574.81 3459.55 3362.74 3208.39 3051.48 2912.95 2791.61 2633.97 2469.86 2323.23 2192.62 2045.06 1891.44 1753.87 1630.76 1503.98 1373.8 1257.43 1153.43 1052.68 951.234 860.908 780.453 705.617 631.86 566.47 508.485 455.965 405.264 360.504 320.981 285.808 252.49 223.188 197.414 174.739 
0.0057004 0.057004 60552.8 62154.9 63690.3 65148.7 66520.2 67796.5 68967.4 70024.1 70958.7 71766.8 72440.6 72974.5 73364.4 73610.5 73709 73657.2 73455 73107.4 72614.4 71975.6 71194 70278.8 69234.2 68060.3 66762.8 65354.4 63844.6 62232.1 60524.9 58738.4 56889.2 54972.4 52997.8 50982.2 48950.8 46892.2 44816.7 42739.6 40696.7 38665.8 36656.1 34677.9 32778.7 30922.3 29115 27362.4 25715.4 24131.5 22610.5 21154.9 19811.4 18540.3 17332.7 16189 15150 14183.1 13272.3 12416.1 11647.8 10946 10289 9675.05 9128.24 8639.28 8184.51 7762.48 7386.73 7057.6 6754.82 6477.3 6228.59 6011.26 5815.97 5641.85 5484.94 5337.49 5210.36 5103.32 5008.73 4894.84 4801.24 4727.86 4669.85 4559.06 4468.78 4398.94 4349.73 4223.08 4113.79 4024.65 3955.49 3811.25 3673.37 3554.93 3455.45 3296.84 3135.6 2993.26 2868.57 2706.59 2537.96 2387.28 2253.07 2101.44 1943.59 1802.22 1675.72 1545.45 1411.68 1292.1 1185.22 1081.7 977.459 884.642 801.969 725.07 649.28 582.087 522.504 468.535 416.437 370.443 329.83 293.687 259.45 229.341 202.857 179.557 
0.00601904 0.0601904 62222.2 63868.4 65446.2 66944.8 68354.1 69665.6 70868.8 71954.5 72915 73745.3 74437.7 74986.3 75387 75639.9 75741 75687.9 75480.1 75122.9 74616.3 73959.9 73156.7 72216.3 71142.9 69936.7 68603.4 67156.2 65604.8 63947.8 62193.5 60357.8 58457.6 56487.9 54458.9 52387.7 50300.3 48184.9 46052.3 43917.9 41818.7 39731.7 37666.7 35633.9 33682.4 31774.8 29917.6 28116.8 26424.3 24796.7 23233.9 21738.1 20357.6 19051.4 17810.5 16635.4 15567.6 14574.1 13638.2 12758.4 11968.9 11247.7 10572.6 9941.78 9379.89 8877.46 8410.15 7976.48 7590.38 7252.17 6941.05 6655.87 6400.3 6176.99 5976.31 5797.39 5636.15 5484.64 5354.01 5244.01 5146.81 5029.79 4933.6 4858.21 4798.59 4684.75 4591.98 4520.21 4469.65 4339.51 4227.2 4135.6 4064.54 3916.32 3774.64 3652.93 3550.72 3387.73 3222.05 3075.78 2947.66 2781.21 2607.92 2453.1 2315.19 2159.37 1997.17 1851.91 1721.92 1588.05 1450.59 1327.72 1217.9 1111.52 1004.41 909.031 824.079 745.059 667.18 598.135 536.908 481.452 427.917 380.656 338.923 301.784 266.603 235.664 208.449 184.507 
0.0063555 0.063555 63937.6 65629.2 67250.4 68790.4 70238.5 71586.2 72822.5 73938.3 74925.2 75778.4 76489.8 77053.6 77465.3 77725.2 77829.1 77774.5 77561 77193.9 76673.4 75998.9 75173.6 74207.2 73104.3 71864.8 70494.7 69007.6 67413.4 65710.7 63908.1 62021.8 60069.2 58045.2 55960.3 53832 51687.1 49513.3 47321.9 45128.7 42971.6 40827.1 38705.1 36616.3 34611 32650.8 30742.4 28891.9 27152.8 25480.4 23874.4 22337.4 20918.8 19576.7 18301.5 17094 15996.8 14975.9 14014.2 13110.2 12298.9 11557.8 10864.1 10215.9 9638.49 9122.2 8642 8196.39 7799.64 7452.1 7132.41 6839.36 6576.75 6347.28 6141.07 5957.21 5791.53 5635.84 5501.61 5388.59 5288.7 5168.45 5069.62 4992.14 4930.89 4813.9 4718.58 4644.83 4592.87 4459.14 4343.74 4249.62 4176.59 4024.29 3878.7 3753.64 3648.6 3481.13 3310.88 3160.57 3028.92 2857.88 2679.82 2520.72 2379.01 2218.9 2052.23 1902.96 1769.39 1631.84 1490.59 1364.33 1251.48 1142.16 1032.1 934.092 846.798 765.6 685.574 614.625 551.71 494.725 439.714 391.15 348.267 310.104 273.953 242.161 214.196 189.594 
0.00671076 0.0671076 65700.3 67438.5 69104.5 70686.9 72174.9 73559.8 74830.2 75976.7 76990.8 77867.5 78598.6 79177.9 79601 79868 79974.8 79918.6 79699.3 79322.1 78787.2 78094.1 77246 76253 75119.7 73846 72438.2 70910.1 69271.9 67522.3 65669.9 63731.6 61725.2 59645.5 57503.1 55316 53112 50878.4 48626.5 46372.8 44156.2 41952.7 39772.2 37625.8 35565.2 33550.9 31590 29688.5 27901.4 26182.8 24532.6 22953.2 21495.5 20116.4 18806.1 17565.2 16437.8 15388.8 14400.6 13471.6 12637.9 11876.5 11163.6 10497.5 9904.21 9373.69 8880.25 8422.35 8014.67 7657.55 7329.04 7027.92 6758.07 6522.27 6310.37 6121.45 5951.2 5791.22 5653.28 5537.14 5434.51 5310.94 5209.38 5129.77 5066.83 4946.62 4848.66 4772.89 4719.49 4582.08 4463.49 4366.77 4291.74 4135.24 3985.63 3857.13 3749.19 3577.1 3402.16 3247.71 3112.42 2936.67 2753.7 2590.22 2444.6 2280.08 2108.81 1955.42 1818.17 1676.82 1531.68 1401.94 1285.98 1173.65 1060.55 959.844 870.143 786.707 704.474 631.569 566.921 508.364 451.837 401.934 357.869 318.653 281.506 248.837 220.101 194.82 
0.00708588 0.0708588 67511.6 69297.7 71009.6 72635.6 74164.7 75587.7 76893.2 78071.2 79113.3 80014.2 80765.4 81360.7 81795.5 82069.9 82179.6 82121.9 81896.5 81508.9 80959.2 80247 79375.6 78355.2 77190.6 75881.9 74435.2 72865 71181.7 69383.8 67480.4 65488.6 63426.9 61289.8 59088.4 56841 54576.2 52281 49967.1 47651.2 45373.6 43109.3 40868.7 38663.1 36545.7 34475.9 32460.8 30506.9 28670.6 26904.7 25208.9 23586 22088.1 20671 19324.5 18049.5 16891 15813.1 14797.6 13843 12986.3 12203.9 11471.4 10786.9 10177.3 9632.11 9125.07 8654.55 8235.62 7868.66 7531.09 7221.67 6944.38 6702.08 6484.34 6290.21 6115.27 5950.88 5809.14 5689.8 5584.33 5457.36 5353 5271.19 5206.51 5082.99 4982.33 4904.47 4849.6 4708.4 4586.54 4487.16 4410.05 4249.24 4095.51 3963.46 3852.55 3675.71 3495.95 3337.24 3198.23 3017.63 2829.62 2661.63 2511.99 2342.93 2166.95 2009.33 1868.29 1723.05 1573.91 1440.59 1321.43 1206.01 1089.79 986.306 894.132 808.395 723.896 648.981 582.55 522.38 464.293 413.015 367.735 327.438 289.267 255.697 226.169 200.191 
0.00748197 0.0748197 69372.8 71208.2 72967.2 74638.1 76209.3 77671.6 79013 80223.6 81294.4 82220.1 82992.1 83603.8 84050.5 84332.4 84445.2 84385.9 84154.3 83756 83191.2 82459.3 81563.9 80515.4 79318.7 77973.8 76487.3 74873.8 73144.1 71296.6 69340.7 67294.1 65175.5 62979.5 60717.4 58408.1 56080.8 53722.4 51344.6 48964.9 46624.5 44297.7 41995.4 39729 37553.2 35426.3 33355.8 31348 29461 27646.4 25903.9 24236.3 22697.1 21240.8 19857.3 18547.1 17356.7 16249 15205.6 14224.6 13344.4 12540.3 11787.7 11084.3 10457.8 9897.65 9376.64 8893.14 8462.67 8085.59 7738.71 7420.76 7135.83 6886.85 6663.1 6463.62 6283.86 6114.93 5969.29 5846.66 5738.28 5607.81 5500.57 5416.51 5350.05 5223.12 5119.69 5039.68 4983.3 4838.2 4712.99 4610.87 4531.63 4366.39 4208.42 4072.73 3958.76 3777.05 3592.33 3429.25 3286.4 3100.82 2907.63 2735.01 2581.25 2407.53 2226.69 2064.73 1919.8 1770.55 1617.3 1480.3 1357.86 1239.25 1119.83 1013.5 918.782 830.682 743.852 666.872 598.61 536.781 477.094 424.401 377.873 336.465 297.241 262.746 232.404 205.71 
0.00790019 0.0790019 71285.3 73171.3 74978.8 76695.8 78310.3 79812.9 81191.3 82435.2 83535.6 84486.8 85280 85908.6 86367.7 86657.4 86773.2 86712.3 86474.3 86065.1 85484.7 84732.6 83812.5 82735.1 81505.4 80123.5 78596 76938 75160.6 73262.2 71252.4 69149.3 66972.3 64715.8 62391.3 60018.3 57626.9 55203.4 52760.1 50314.8 47909.8 45519 43153.1 40824.2 38588.5 36403 34275.3 32212.2 30273.2 28408.6 26618 24904.4 23322.8 21826.4 20404.7 19058.4 17835.2 16697 15624.8 14616.8 13712.2 12886 12112.6 11389.9 10746.1 10170.5 9635.14 9138.31 8695.97 8308.5 7952.06 7625.34 7332.55 7076.71 6846.8 6641.82 6457.1 6283.52 6133.85 6007.84 5896.48 5762.41 5652.22 5565.84 5497.54 5367.12 5260.83 5178.62 5120.69 4971.59 4842.92 4737.98 4656.57 4486.76 4324.44 4185.01 4067.9 3881.18 3691.36 3523.79 3377 3186.31 2987.79 2810.41 2652.41 2473.9 2288.07 2121.65 1972.73 1819.37 1661.88 1521.12 1395.3 1273.42 1150.71 1041.44 944.112 853.582 764.36 685.257 615.113 551.579 490.246 436.101 388.29 345.741 305.436 269.99 238.811 211.382 
0.0083418 0.083418 73250.5 75188.6 77045.9 78810.2 80469.2 82013.3 83429.6 84707.9 85838.5 86816 87631.1 88277 88748.7 89046.4 89165.5 89102.9 88858.3 88437.8 87841.4 87068.6 86123.1 85016 83752.4 82332.4 80762.8 79059 77232.6 75281.9 73216.7 71055.6 68818.7 66499.9 64111.3 61672.9 59215.6 56725.3 54214.7 51701.9 49230.6 46773.9 44342.8 41949.7 39652.3 37406.6 35220.3 33100.3 31107.8 29191.7 27351.9 25591 23965.8 22428.1 20967.3 19583.8 18326.9 17157.3 16055.5 15019.8 14090.3 13241.3 12446.6 11703.9 11042.4 10450.9 9900.77 9390.25 8935.71 8537.55 8171.29 7835.56 7534.7 7271.8 7035.55 6824.92 6635.11 6456.74 6302.96 6173.47 6059.04 5921.27 5808.04 5719.28 5649.1 5515.08 5405.87 5321.38 5261.86 5108.65 4976.43 4868.6 4784.94 4610.46 4443.66 4300.39 4180.05 3988.18 3793.13 3620.93 3470.1 3274.15 3070.16 2887.89 2725.53 2542.1 2351.15 2180.14 2027.11 1869.52 1707.7 1563.05 1433.76 1308.53 1182.43 1070.15 970.14 877.115 785.432 704.149 632.071 566.786 503.762 448.124 398.995 355.272 313.856 277.433 245.395 217.209 
0.00880809 0.0880809 75270 77261.4 79170 80982.9 82687.7 84274.2 85729.7 87043.1 88205 89209.4 90047 90710.7 91195.4 91501.3 91623.6 91559.3 91308 90875.9 90263 89469 88497.4 87359.7 86061.3 84602.2 82989.3 81238.6 79361.8 77357.4 75235.2 73014.5 70715.9 68333.2 65878.8 63373.2 60848.1 58289.1 55709.3 53127.3 50587.9 48063.3 45565.3 43106.2 40745.5 38437.8 36191.2 34012.8 31965.4 29996.5 28105.9 26296.5 24626.5 23046.5 21545.3 20123.7 18832.1 17630.3 16498.1 15433.8 14478.7 13606.3 12789.7 12026.5 11346.8 10739 10173.7 9649.12 9182.05 8772.92 8396.56 8051.58 7742.42 7472.28 7229.51 7013.08 6818.03 6634.75 6476.72 6343.66 6226.08 6084.51 5968.16 5876.95 5804.84 5667.12 5554.9 5468.09 5406.92 5249.49 5113.63 5002.82 4916.86 4737.56 4566.17 4418.94 4295.29 4098.13 3897.7 3720.76 3565.77 3364.42 3154.8 2967.5 2800.67 2612.18 2415.97 2240.24 2083 1921.06 1754.78 1606.14 1473.29 1344.6 1215.03 1099.65 996.885 901.295 807.085 723.561 649.496 582.411 517.65 460.478 409.994 365.067 322.509 285.081 252.16 223.197 
0.00930045 0.0930045 77345 79391.4 81352.6 83215.5 84967.2 86597.6 88093.1 89442.8 90636.6 91668.8 92529.4 93211.4 93709.5 94023.8 94149.6 94083.5 93825.2 93381.2 92751.5 91935.5 90937.1 89768.1 88433.9 86934.5 85277.2 83478.2 81549.7 79490 77309.3 75027.4 72665.4 70217.1 67694.9 65120.3 62525.6 59896.1 57245.1 54591.9 51982.5 49388.4 46821.4 44294.6 41868.8 39497.5 37189 34950.5 32846.7 30823.5 28880.7 27021.5 25305.4 23681.8 22139.3 20678.5 19351.3 18116.3 16953 15859.3 14877.9 13981.4 13142.3 12358.1 11659.6 11035.1 10454.2 9915.13 9435.19 9014.78 8628.04 8273.55 7955.87 7678.28 7428.82 7206.42 7005.99 6817.66 6655.27 6518.55 6397.72 6252.25 6132.69 6038.97 5964.87 5823.36 5708.04 5618.83 5555.98 5394.21 5254.6 5140.74 5052.41 4868.17 4692.05 4540.76 4413.7 4211.11 4005.16 3823.33 3664.07 3457.17 3241.77 3049.31 2877.88 2684.2 2482.57 2302 2140.42 1974.02 1803.15 1650.42 1513.91 1381.67 1248.52 1129.97 1024.37 926.143 829.335 743.509 667.402 598.467 531.921 473.173 421.297 375.131 331.4 292.941 259.112 229.35 
0.00982033 0.0982033 79477.3 81580.1 83595.3 85509.6 87309.7 88984.9 90521.7 91908.6 93135.4 94195.9 95080.3 95781.1 96292.9 96615.9 96745.1 96677.2 96411.8 95955.5 95308.5 94470 93444.1 92242.9 90871.9 89331.2 87628.2 85779.6 83797.9 81681.4 79440.6 77095.8 74668.7 72152.8 69561.2 66915.6 64249.3 61547.3 58823.3 56097 53415.6 50749.9 48112.2 45515.7 43023 40586.4 38214.2 35914 33752.2 31673.2 29676.9 27766.4 26003 24334.7 22749.6 21248.6 19884.8 18615.8 17420.3 16296.5 15288 14366.9 13504.6 12698.8 11981.1 11339.3 10742.4 10188.5 9695.3 9263.3 8865.9 8501.64 8175.2 7889.95 7633.62 7405.09 7199.14 7005.61 6838.75 6698.26 6574.1 6424.62 6301.76 6205.46 6129.31 5983.9 5865.4 5773.74 5709.15 5542.92 5399.46 5282.47 5191.69 5002.38 4821.4 4665.95 4535.38 4327.2 4115.57 3928.73 3765.08 3552.48 3331.14 3133.37 2957.22 2758.2 2551.02 2365.47 2199.43 2028.45 1852.86 1695.92 1555.64 1419.76 1282.94 1161.12 1052.61 951.675 852.199 764.006 685.801 614.966 546.585 486.217 432.912 385.473 340.536 301.017 266.255 235.673 
0.0103693 0.103693 81668.4 83829.1 85899.9 87866.9 89716.6 91438.1 93017.2 94442.4 95702.9 96792.8 97701.5 98421.6 98947.6 99279.5 99412.2 99342.4 99069.7 98600.9 97936 97074.4 96020.2 94785.9 93377.1 91793.9 90043.9 88144.4 86108.1 83933.2 81630.7 79221.2 76727.2 74142 71478.9 68760.3 66020.6 63244.1 60444.9 57643.5 54888.2 52149 49438.6 46770.5 44209.1 41705.3 39267.7 36904.1 34682.7 32546.4 30495.1 28531.9 26719.9 25005.6 23376.8 21834.4 20432.9 19129 17900.6 16745.8 15709.5 14763 13876.9 13048.9 12311.4 11651.9 11038.6 10469.4 9962.59 9518.67 9110.32 8736.01 8400.58 8107.47 7844.07 7609.23 7397.61 7198.74 7027.28 6882.91 6755.34 6601.73 6475.49 6376.53 6298.29 6148.87 6027.1 5932.91 5866.54 5695.73 5548.32 5428.09 5334.82 5140.28 4954.32 4794.58 4660.41 4446.49 4229.03 4037.04 3868.88 3650.41 3422.97 3219.76 3038.75 2834.24 2621.34 2430.68 2260.07 2084.37 1903.95 1742.67 1598.53 1458.9 1318.31 1193.13 1081.63 977.911 875.693 785.068 704.707 631.92 561.653 499.621 444.847 396.1 349.924 309.315 273.596 242.17 
0.0109489 0.109489 83919.8 86140.1 88268 90289.3 92190 93958.9 95581.5 97046 98341.3 99461.2 100395 101135 101675 102016 102153 102081 101801 101319 100636 99750.6 98667.3 97398.9 95951.3 94324.5 92526.3 90574.4 88481.9 86247.1 83881.1 81405.2 78842.4 76185.9 73449.4 70655.9 67840.7 64987.6 62111.3 59232.6 56401.3 53586.7 50801.5 48059.9 45427.9 42855 40350.3 37921.5 35638.8 33443.7 31335.8 29318.5 27456.5 25694.9 24021.2 22436.3 20996.2 19656.3 18394.1 17207.5 16142.6 15169.9 14259.5 13408.6 12650.8 11973.1 11342.9 10758 10237.2 9781.08 9361.47 8976.85 8632.17 8330.97 8060.32 7819 7601.54 7397.2 7221.01 7072.66 6941.57 6783.73 6654.01 6552.32 6471.92 6318.38 6193.26 6096.47 6028.27 5852.75 5701.27 5577.74 5481.89 5281.99 5090.9 4926.76 4788.89 4569.07 4345.62 4148.34 3975.54 3751.05 3517.34 3308.52 3122.52 2912.37 2693.61 2497.69 2322.37 2141.83 1956.43 1790.72 1642.6 1499.12 1354.66 1226.02 1111.44 1004.87 899.834 806.711 724.135 649.34 577.137 513.395 457.11 407.019 359.571 317.842 281.138 248.847 
0.0115609 0.115609 86233.3 88514.8 90701.4 92778.4 94731.4 96549.1 98216.5 99721.3 101052 102203 103163 103923 104478 104829 104969 104895 104607 104112 103410 102500 101387 100084 98596.5 96924.8 95077 93071.3 90921.2 88624.8 86193.5 83649.4 81016 78286.2 75474.3 72603.7 69710.9 66779.2 63823.6 60865.5 57956.2 55064 52202 49384.8 46680.2 44036.4 41462.6 38966.9 36621.3 34365.6 32199.6 30126.7 28213.4 26403.3 24683.5 23054.8 21575.1 20198.2 18901.2 17681.8 16587.6 15588.2 14652.6 13778.3 12999.5 12303.2 11655.6 11054.6 10519.5 10050.7 9619.55 9224.32 8870.14 8560.64 8282.52 8034.56 7811.1 7601.12 7420.08 7267.64 7132.93 6970.75 6837.44 6732.95 6650.34 6492.56 6363.99 6264.53 6194.46 6014.09 5858.45 5731.5 5633.01 5427.6 5231.25 5062.58 4920.91 4695.03 4465.42 4262.7 4085.14 3854.46 3614.3 3399.73 3208.6 2992.66 2767.87 2566.54 2386.39 2200.87 2010.37 1840.08 1687.88 1540.45 1392 1259.82 1142.09 1032.57 924.64 828.951 744.098 667.242 593.048 527.548 469.712 418.24 369.484 326.605 288.889 255.707 
0.0122071 0.122071 88610.6 90955 93201.8 95336 97343 99210.8 100924 102470 103838 105021 106007 106788 107359 107719 107863 107787 107491 106982 106261 105326 104182 102843 101315 99596.8 97698.1 95637.1 93427.7 91068 88569.7 85955.4 83249.4 80444.4 77554.9 74605.3 71632.7 68620.1 65583 62543.4 59553.9 56581.9 53641.1 50746.2 47967.1 45250.4 42605.7 40041.1 37630.9 35313 33087.3 30957.2 28991.2 27131.1 25363.9 23690.4 22169.8 20755 19422.2 18169.3 17044.9 16017.9 15056.5 14158.1 13357.9 12642.4 11976.9 11359.3 10809.5 10327.8 9884.74 9478.62 9114.67 8796.64 8510.85 8256.05 8026.44 7810.67 7624.63 7468 7329.57 7162.91 7025.94 6918.57 6833.67 6671.55 6539.43 6437.23 6365.22 6179.89 6019.95 5889.51 5788.3 5577.23 5375.46 5202.14 5056.57 4824.47 4588.52 4380.21 4197.75 3960.72 3713.94 3493.45 3297.05 3075.16 2844.17 2637.3 2452.18 2261.55 2065.79 1890.81 1734.41 1582.91 1430.37 1294.55 1173.57 1061.04 950.131 851.803 764.611 685.636 609.397 542.092 482.661 429.77 379.669 335.608 296.853 262.756 
0.0128895 0.128895 91053.5 93462.5 95771.3 97964.4 100027 101946 103707 105295 106701 107916 108929 109732 110318 110688 110836 110759 110455 109932 109191 108230 107055 105678 104108 102343 100392 98273.7 96003.4 93578.6 91011.5 88325.2 85544.5 82662.2 79693 76662.1 73607.5 70511.9 67391.1 64267.7 61195.8 58141.9 55120 52145.3 49289.5 46497.9 43780.3 41145 38668.3 36286.6 33999.5 31810.7 29790.5 27879.1 26063.2 24343.5 22781.1 21327.2 19957.7 18670.2 17514.8 16459.5 15471.6 14548.4 13726.2 12990.9 12307.1 11672.5 11107.5 10612.5 10157.3 9739.94 9365.95 9039.16 8745.49 8483.67 8247.72 8026 7834.84 7673.88 7531.64 7360.39 7219.64 7109.31 7022.07 6855.48 6719.72 6614.7 6540.71 6350.26 6185.91 6051.88 5947.88 5730.99 5523.66 5345.56 5195.98 4957.47 4715.02 4500.97 4313.48 4069.91 3816.33 3589.76 3387.95 3159.94 2922.58 2710.01 2519.79 2323.9 2122.74 1942.94 1782.23 1626.55 1469.81 1330.24 1205.92 1090.29 976.325 875.287 785.691 704.538 626.197 557.037 495.967 441.618 390.137 344.861 305.037 270 
0.01361 0.1361 93568.8 96044.4 98417 100671 102790 104762 106571 108204 109648 110897 111938 112763 113366 113746 113898 113818 113506 112969 112207 111220 110012 108598 106984 105170 103165 100989 98655.5 96163.7 93525.6 90765.1 87907.7 84945.7 81894.6 78779.8 75640.9 72459.8 69252.8 66043.1 62886.3 59748 56642.6 53585.8 50651.1 47782.4 44989.7 42281.6 39736.5 37289 34938.7 32689.5 30613.4 28649.3 26783.2 25016 23410.4 21916.4 20509 19186 17998.6 16914.2 15899 14950.3 14105.3 13349.8 12647.1 11994.9 11414.3 10905.7 10437.8 10009 9624.69 9288.86 8987.08 8718.03 8475.56 8247.72 8051.28 7885.87 7739.7 7563.72 7419.08 7305.7 7216.06 7044.86 6905.35 6797.43 6721.39 6525.69 6356.8 6219.06 6112.19 5889.31 5676.25 5493.23 5339.51 5094.42 4845.27 4625.31 4432.64 4182.34 3921.76 3688.93 3481.54 3247.23 3003.32 2784.87 2589.4 2388.09 2181.38 1996.61 1831.46 1671.49 1510.41 1366.99 1239.24 1120.41 1003.3 899.466 807.395 724.001 643.496 572.425 509.668 453.818 400.914 354.387 313.463 277.459 
0.0143708 0.143708 96176.7 98721.3 101160 103476 105655 107682 109542 111220 112704 113988 115058 115906 116526 116916 117073 116991 116669 116117 115334 114320 113078 111624 109965 108101 106040 103803 101405 98843.9 96132.3 93294.8 90357.7 87313.2 84177 80975.5 77749.1 74479.3 71182.9 67883.8 64639 61413.3 58221.3 55079.3 52062.8 49114.2 46243.6 43460.1 40844 38328.3 35912.5 33600.5 31466.6 29447.8 27529.7 25713.2 24062.8 22527.2 21080.6 19720.7 18500.3 17385.6 16342.1 15367 14498.5 13721.9 12999.5 12329.2 11732.4 11209.7 10728.8 10288 9892.93 9547.75 9237.56 8961.01 8711.78 8477.59 8275.67 8105.66 7955.42 7774.53 7625.86 7509.32 7417.17 7241.21 7097.81 6986.88 6908.73 6707.57 6533.97 6392.39 6282.54 6053.45 5834.45 5646.33 5488.33 5236.41 4980.31 4754.22 4556.18 4298.91 4031.06 3791.74 3578.58 3337.73 3087.02 2862.49 2661.56 2454.65 2242.18 2052.26 1882.5 1718.07 1552.51 1405.09 1273.78 1151.64 1031.26 924.535 829.898 744.18 661.431 588.379 523.873 466.466 412.088 364.265 322.2 285.192 
0.0151741 0.151741 98825.9 101441 103946 106327 108565 110648 112559 114284 115809 117128 118227 119099 119735 120137 120298 120213 119883 119316 118511 117469 116193 114699 112995 111079 108961 106662 104198 101567 98780.3 95864.7 92846.7 89718.3 86495.7 83206 79890.7 76530.9 73143.7 69753.7 66419.5 63104.9 59825 56596.4 53496.9 50467 47517.4 44657.2 41969.1 39384 36901.7 34526.1 32333.4 30258.9 28288 26421.5 24725.7 23147.7 21661.3 20263.9 19009.9 17864.5 16792.3 15790.3 14897.8 14099.8 13357.6 12668.8 12055.6 11518.4 11024.3 10571.3 10165.4 9810.75 9492.01 9207.84 8951.75 8711.11 8503.63 8328.93 8174.55 7988.68 7835.91 7716.16 7621.48 7440.67 7293.32 7179.34 7099.03 6892.33 6713.95 6568.47 6455.6 6220.2 5995.16 5801.86 5639.51 5380.65 5117.5 4885.18 4681.69 4417.32 4142.1 3896.19 3677.15 3429.67 3172.06 2941.33 2734.88 2522.27 2303.94 2108.79 1934.36 1765.4 1595.27 1443.79 1308.86 1183.36 1059.67 950.002 852.758 764.678 679.65 604.586 538.304 479.315 423.439 374.298 331.075 293.048 
0.0160223 0.160223 101547 104234 106809 109255 111555 113695 115659 117431 118998 120353 121483 122379 123033 123445 123610 123524 123184 122601 121775 120703 119393 117858 116106 114138 111962 109600 107068 104364 101501 98504.6 95403.5 92189 88877.7 85497.4 82090.8 78638.4 75157.9 71674.5 68248.6 64842.7 61472.5 58155 54970.1 51856.8 48825.9 45887 43124.9 40468.6 37917.9 35476.9 33223.8 31092.2 29067 27149.1 25406.6 23785.2 22257.8 20821.9 19533.4 18356.4 17254.7 16225.1 15308.1 14488.1 13725.5 13017.7 12387.6 11835.6 11327.9 10862.5 10445.4 10080.9 9753.41 9461.41 9198.27 8951 8737.8 8558.3 8399.66 8208.67 8051.7 7928.65 7831.37 7645.57 7494.17 7377.05 7294.52 7082.13 6898.84 6749.36 6633.38 6391.49 6160.26 5961.64 5794.81 5528.82 5258.43 5019.71 4810.61 4538.97 4256.17 4003.48 3778.41 3524.12 3259.41 3022.33 2810.19 2591.73 2367.39 2166.86 1987.63 1814.01 1639.2 1483.55 1344.91 1215.95 1088.85 976.163 876.241 785.736 698.366 621.235 553.127 492.515 435.1 384.606 340.192 301.118 
0.0169179 0.169179 104343 107104 109750 112263 114626 116826 118843 120664 122275 123667 124828 125748 126420 126844 127014 126925 126576 125977 125128 124027 122680 121103 119303 117280 115044 112617 110016 107237 104295 101217 98030.3 94727.3 91324.8 87851.4 84351 80803.6 77227.3 73648 70127.7 66628.1 63165.1 59756.2 56483.6 53284.6 50170.3 47150.4 44312.2 41582.8 38962 36453.7 34138.6 31948.3 29867.3 27896.6 26106.1 24440.1 22870.6 21395.3 20071.2 18861.9 17729.8 16671.9 15729.6 14887 14103.4 13376.2 12728.7 12161.5 11639.8 11161.5 10733 10358.5 10022 9721.92 9451.53 9197.46 8978.39 8793.94 8630.94 8434.69 8273.39 8146.96 8046.99 7856.08 7700.51 7580.17 7495.37 7277.13 7088.79 6935.19 6816.02 6567.47 6329.88 6125.78 5954.37 5681.05 5403.21 5157.92 4943.07 4663.94 4373.35 4113.71 3882.45 3621.15 3349.15 3105.55 2887.57 2663.09 2432.57 2226.52 2042.35 1863.96 1684.34 1524.4 1381.94 1249.43 1118.83 1003.04 900.368 807.371 717.595 638.34 568.357 506.076 447.08 395.196 349.559 309.408 
0.0178636 0.178636 107216 110053 112771 115354 117782 120042 122115 123986 125641 127072 128265 129210 129901 130336 130511 130419 130061 129446 128573 127442 126058 124437 122588 120509 118212 115718 113045 110190 107167 104004 100729 97335.3 93839.1 90270.1 86673.4 83028.3 79353.5 75675.7 72058.5 68462.5 64904.1 61401.4 58038.7 54751.6 51551.6 48448.5 45532.2 42727.7 40034.7 37457.3 35078.5 32827.9 30689.6 28664.7 26824.9 25113 23500.3 21984.3 20623.8 19381.2 18217.9 17130.9 16162.7 15296.9 14491.7 13744.4 13079.1 12496.3 11960.2 11468.8 11028.5 10643.7 10297.9 9989.58 9711.75 9450.68 9225.58 9036.05 8868.56 8666.91 8501.18 8371.26 8268.54 8072.38 7912.52 7788.86 7701.73 7477.48 7283.96 7126.13 7003.67 6748.28 6504.15 6294.44 6118.3 5837.46 5551.97 5299.92 5079.16 4792.35 4493.76 4226.97 3989.34 3720.85 3441.36 3191.05 2967.07 2736.4 2499.54 2287.82 2098.58 1915.28 1730.71 1566.37 1419.98 1283.82 1149.63 1030.66 925.156 829.599 737.352 655.915 584.005 520.009 459.389 406.076 359.183 317.927 
0.0188621 0.188621 110168 113083 115876 118530 121025 123347 125477 127400 129100 130570 131796 132768 133477 133925 134104 134010 133642 133009 132112 130950 129528 127863 125963 123827 121466 118904 116157 113223 110117 106867 103502 100015 96422.6 92755.4 89059.6 85314.2 81538.2 77759.1 74042.3 70347.3 66691 63091.9 59636.6 56259 52970.9 49782.4 46785.8 43904 41136.9 38488.6 36044.2 33731.7 31534.5 29453.8 27563.4 25804.4 24147.3 22589.6 21191.6 19914.8 18719.5 17602.5 16607.6 15718 14890.6 14122.8 13439.2 12840.4 12289.5 11784.6 11332.1 10936.7 10581.4 10264.6 9979.13 9710.87 9479.57 9284.83 9112.73 8905.52 8735.22 8601.73 8496.19 8294.62 8130.36 8003.3 7913.77 7683.35 7484.5 7322.32 7196.5 6934.07 6683.22 6467.73 6286.74 5998.17 5704.82 5445.84 5218.99 4924.29 4617.48 4343.35 4099.17 3823.29 3536.11 3278.9 3048.75 2811.74 2568.36 2350.81 2156.36 1968.01 1778.36 1609.49 1459.08 1319.17 1181.28 1059.03 950.627 852.439 757.652 673.973 600.083 534.325 472.036 417.256 369.072 326.68 
0.0199165 0.199165 113201 116196 119066 121793 124357 126743 128932 130907 132655 134165 135425 136423 137152 137612 137796 137699 137321 136671 135750 134556 133094 131383 129431 127236 124811 122178 119355 116340 113149 109809 106352 102769 99077.4 95309.1 91511.6 87663.1 83783.1 79900 76080.9 72284.1 68527.2 64828.9 61278.5 57808 54429.3 51153 48073.9 45112.8 42269.5 39548.2 37036.6 34660.4 32402.7 30264.8 28322.3 26514.8 24812.1 23211.5 21775.1 20463 19234.9 18087.1 17064.9 16150.8 15300.6 14511.7 13809.2 13193.9 12627.9 12109.1 11644.1 11237.8 10872.7 10547.2 10253.9 9978.23 9740.56 9540.46 9363.62 9150.71 8975.72 8838.55 8730.1 8522.99 8354.21 8223.65 8131.65 7894.88 7690.56 7523.92 7394.63 7124.98 6867.22 6645.8 6459.83 6163.31 5861.89 5595.77 5362.68 5059.86 4744.61 4462.93 4212.03 3928.55 3633.46 3369.18 3132.69 2889.15 2639.07 2415.53 2215.73 2022.19 1827.32 1653.8 1499.25 1355.49 1213.8 1088.19 976.8 875.908 778.512 692.529 616.605 549.037 485.032 428.744 379.233 335.674 
0.0210298 0.210298 116318 119395 122345 125146 127781 130233 132482 134512 136307 137859 139153 140179 140928 141401 141590 141491 141102 140434 139487 138260 136759 135001 132994 130739 128247 125542 122641 119544 116264 112833 109280 105598 101805 97933.3 94031.2 90076.7 86090 82099.9 78175.6 74274.4 70414 66613.9 62965.8 59399.6 55927.9 52561.4 49397.6 46354.9 43433.3 40637.1 38056.4 35614.7 33294.9 31098.1 29102.1 27244.9 25495.3 23850.6 22374.6 21026.5 19764.5 18585.1 17534.7 16595.5 15721.9 14911.2 14189.4 13557.2 12975.6 12442.5 11964.7 11547.2 11172.1 10837.6 10536.2 10253 10008.8 9803.14 9621.43 9402.66 9222.86 9081.91 8970.47 8757.65 8584.23 8450.07 8355.55 8112.26 7902.31 7731.08 7598.23 7321.16 7056.3 6828.78 6637.69 6333.01 6023.29 5749.84 5510.34 5199.18 4875.24 4585.81 4328 4036.72 3733.5 3461.94 3218.95 2968.7 2711.73 2482.04 2276.74 2077.87 1877.63 1699.34 1540.53 1392.81 1247.22 1118.15 1003.69 900.025 799.947 711.597 633.582 564.153 498.387 440.549 389.674 344.916 
0.0222053 0.222053 119521 122683 125714 128592 131299 133819 136130 138215 140060 141655 142985 144039 144809 145294 145489 145387 144988 144301 143328 142067 140525 138718 136656 134339 131778 128998 126018 122835 119466 115939 112289 108506 104609 100630 96620.4 92557 88460.5 84360.6 80328.2 76319.5 72352.8 68448.1 64699.5 61035.2 57467.9 54008.7 50757.7 47631.3 44629.2 41756.1 39104.3 36595.4 34211.7 31954.4 29903.4 27995.1 26197.3 24507.3 22990.7 21605.4 20308.7 19096.9 18017.6 17052.4 16154.8 15321.8 14580.1 13930.5 13332.9 12785.1 12294.2 11865.2 11479.7 11136 10826.3 10535.3 10284.4 10073.1 9886.36 9661.57 9476.81 9331.99 9217.48 8998.8 8820.6 8682.75 8585.62 8335.63 8119.9 7943.96 7807.45 7522.75 7250.59 7016.81 6820.46 6507.39 6189.14 5908.17 5662.06 5342.34 5009.48 4712.08 4447.17 4147.87 3836.31 3557.27 3307.58 3050.45 2786.4 2550.38 2339.43 2135.08 1929.34 1746.13 1582.95 1431.16 1281.57 1148.94 1031.33 924.808 821.974 731.191 651.028 579.688 512.11 452.679 400.404 354.414 
0.0234465 0.234465 122812 126061 129175 132133 134915 137504 139878 142021 143917 145556 146923 148005 148796 149295 149495 149390 148980 148275 147275 145980 144394 142538 140420 138039 135407 132551 129488 126218 122755 119132 115382 111494 107489 103401 99281.1 95105.8 90896.5 86683.6 82540.3 78421.2 74345.3 70333 66481.2 62715.9 59050.4 55496 52155.5 48943 45858.2 42906 40181.1 37603.1 35153.8 32834.3 30726.9 28766 26918.7 25182.2 23623.8 22200.4 20867.9 19622.8 18513.7 17522 16599.7 15743.7 14981.6 14314.1 13700 13137.1 12632.7 12191.9 11795.8 11442.7 11124.4 10825.4 10567.6 10350.5 10158.6 9927.62 9737.78 9588.96 9471.3 9246.6 9063.49 8921.85 8822.04 8565.17 8343.5 8162.71 8022.45 7729.91 7450.26 7210.04 7008.28 6686.59 6359.57 6070.86 5817.98 5489.45 5147.43 4841.84 4569.64 4262.09 3941.95 3655.23 3398.66 3134.45 2863.13 2620.61 2403.85 2193.88 1982.46 1794.21 1626.54 1470.57 1316.86 1180.58 1059.73 950.274 844.609 751.326 668.956 595.651 526.213 465.145 411.43 364.173 
0.0247572 0.247572 126194 129533 132733 135772 138630 141290 143731 145933 147880 149564 150969 152081 152894 153407 153612 153504 153083 152358 151331 150000 148371 146463 144287 141840 139136 136201 133054 129694 126136 122413 118559 114564 110449 106249 102015 97724.9 93399.7 89070.8 84813.3 80580.8 76392.7 72269.9 68312 64443.1 60676.6 57024.3 53591.8 50290.8 47121.1 44087.5 41287.6 38638.7 36121.9 33738.5 31573.1 29558.2 27660 25875.7 24274.4 22811.8 21442.6 20163.2 19023.6 18004.6 17056.8 16177.3 15394.2 14708.3 14077.3 13498.9 12980.6 12527.7 12120.7 11757.8 11430.8 11123.5 10858.6 10635.5 10438.4 10201 10005.9 9853.03 9732.13 9501.25 9313.1 9167.55 9064.99 8801.05 8573.27 8387.51 8243.38 7942.78 7655.43 7408.6 7201.28 6870.73 6534.71 6238.05 5978.2 5640.63 5289.19 4975.18 4695.48 4379.47 4050.51 3755.89 3492.26 3220.77 2941.98 2692.78 2470.05 2254.3 2037.06 1843.63 1671.33 1511.07 1353.12 1213.09 1088.92 976.444 867.868 772.017 687.378 612.054 540.704 477.954 422.761 374.202 
0.026141 0.26141 129670 133100 136388 139511 142448 145182 147689 149952 151953 153684 155126 156270 157105 157632 157843 157732 157299 156554 155499 154131 152457 150497 148260 145747 142968 139952 136719 133266 129610 125784 121824 117720 113491 109175 104825 100416 95971.9 91523.9 87149.1 82800.1 78496.5 74260.3 70193.4 66217.9 62347.6 58594.8 55067.7 51675.8 48418.8 45301.7 42424.7 39702.8 37116.7 34667.7 32442.6 30372.2 28421.8 26588.3 24942.9 23440 22033.2 20718.5 19547.5 18500.4 17526.6 16622.8 15818.2 15113.4 14465 13870.7 13338.1 12872.7 12454.5 12081.6 11745.6 11429.9 11157.6 10928.4 10725.8 10482 10281.5 10124.4 10000.2 9762.92 9569.58 9420.03 9314.65 9043.44 8809.39 8618.5 8470.4 8161.53 7866.26 7612.63 7399.61 7059.96 6714.68 6409.85 6142.85 5795.98 5434.86 5112.2 4824.8 4500.08 4162.06 3859.33 3588.44 3309.47 3023.01 2766.94 2538.08 2316.38 2093.16 1894.4 1717.36 1552.69 1390.39 1246.5 1118.91 1003.34 891.77 793.278 706.309 628.911 555.595 491.118 434.404 384.508 
0.0276023 0.276023 133241 136766 140145 143354 146372 149180 151756 154082 156138 157916 159399 160574 161432 161973 162190 162076 161631 160866 159781 158376 156656 154642 152344 149761 146906 143806 140484 136936 133179 129248 125180 120962 116617 112182 107712 103182 98615.2 94044.6 89549.4 85080.5 80658.5 76305.5 72126.6 68041.6 64064.8 60208.6 56584.4 53099.1 49752.4 46549.4 43593.2 40796.3 38138.9 35622.5 33336.1 31208.7 29204.6 27320.6 25629.9 24085.6 22640 21289.1 20085.9 19009.9 18009.3 17080.6 16253.8 15529.6 14863.4 14252.7 13705.4 13227.2 12797.5 12414.4 12069.1 11744.7 11464.9 11229.4 11021.2 10770.7 10564.7 10403.2 10275.6 10031.8 9833.14 9679.47 9571.19 9292.51 9052.01 8855.87 8703.69 8386.31 8082.91 7822.3 7603.41 7254.4 6899.61 6586.39 6312.03 5955.6 5584.54 5252.99 4957.68 4624.02 4276.69 3965.62 3687.27 3400.62 3106.26 2843.15 2607.98 2380.18 2150.81 1946.57 1764.66 1595.45 1428.68 1280.83 1149.72 1030.97 916.331 815.126 725.762 646.232 570.897 504.644 446.368 395.098 
0.0291452 0.291452 136911 140533 144004 147302 150403 153289 155936 158325 160439 162266 163789 164996 165878 166434 166657 166540 166083 165297 164182 162738 160970 158901 156539 153885 150952 147767 144353 140708 136847 132808 128627 124293 119829 115271 110678 106024 101331 96634.8 92015.7 87423.8 82879.9 78407.1 74113.1 69915.6 65829.3 61866.8 58142.8 54561.5 51122.6 47831.5 44793.8 41919.9 39189.4 36603.6 34254.2 32068.2 30008.9 28073.1 26335.8 24749 23263.5 21875.4 20639.1 19533.5 18505.3 17551.1 16701.5 15957.3 15272.7 14645.2 14082.9 13591.5 13150 12756.3 12401.5 12068.1 11780.7 11538.7 11324.8 11067.3 10855.7 10689.8 10558.6 10308.1 10104 9946.06 9834.8 9548.44 9301.32 9099.78 8943.41 8617.28 8305.53 8037.74 7812.82 7454.2 7089.64 6767.79 6485.88 6119.63 5738.35 5397.67 5094.22 4751.37 4394.48 4074.84 3788.82 3494.28 3191.82 2921.46 2679.81 2445.73 2210.05 2000.19 1813.26 1639.39 1468.03 1316.11 1181.39 1059.36 941.568 837.576 745.751 664.03 586.621 518.542 458.662 405.98 
0.0307744 0.307744 140681 144403 147971 151359 154545 157511 160231 162686 164857 166735 168300 169540 170446 171018 171247 171127 170657 169849 168704 167220 165404 163277 160851 158124 155109 151837 148329 144583 140616 136466 132170 127716 123129 118446 113727 108944 104122 99296.2 94550 89831.6 85162.6 80566.6 76154.3 71841.2 67642.3 63570.7 59744.2 56064.2 52530.6 49148.8 46027.5 43074.4 40268.7 37611.7 35197.7 32951.4 30835.4 28846.2 27061.1 25430.6 23904.2 22477.9 21207.5 20071.5 19014.9 18034.4 17161.5 16396.8 15693.4 15048.6 14470.8 13965.9 13512.1 13107.6 12743.1 12400.5 12105.1 11856.5 11636.7 11372.1 11154.6 10984.2 10849.4 10592 10382.2 10220 10105.7 9811.42 9557.49 9350.4 9189.72 8854.62 8534.28 8259.11 8028 7659.5 7284.9 6954.18 6664.51 6288.18 5896.39 5546.33 5234.52 4882.23 4515.51 4187.07 3893.17 3590.51 3279.72 3001.92 2753.61 2513.09 2270.91 2055.28 1863.2 1684.54 1508.46 1352.35 1213.92 1088.54 967.5 860.645 766.29 682.319 602.777 532.824 471.294 417.161 
0.0324946 0.324946 144556 148380 152046 155527 158802 161849 164644 167166 169397 171326 172935 174210 175141 175728 175963 175839 175357 174527 173350 171825 169959 167774 165281 162478 159381 156019 152414 148565 144489 140224 135810 131234 126520 121708 116859 111944 106990 102031 97153.9 92305.6 87508 82785.4 78251.6 73819.7 69505.2 65321.5 61389.5 57608.3 53977.3 50502.4 47295.1 44260.7 41377.7 38647.6 36167 33858.9 31684.6 29640.7 27806.4 26130.9 24562.6 23096.9 21791.5 20624.3 19538.6 18531.1 17634.1 16848.4 16125.6 15463 14869.3 14350.5 13884.3 13468.6 13094 12742 12438.5 12183 11957.2 11685.3 11461.8 11286.7 11148.2 10883.7 10668.2 10501.5 10384 10081.6 9820.71 9607.91 9442.81 9098.48 8769.32 8486.57 8249.09 7870.44 7485.53 7145.7 6848.05 6461.36 6058.78 5699.08 5378.69 5016.69 4639.87 4302.38 4000.39 3689.4 3370.05 3084.59 2829.45 2582.3 2333.46 2111.88 1914.52 1730.94 1550.01 1389.6 1247.36 1118.52 994.146 884.347 787.394 701.11 619.378 547.498 484.274 428.65 
0.034311 0.34311 148537 152467 156233 159810 163175 166306 169178 171770 174062 176045 177697 179007 179964 180567 180809 180682 180186 179333 178124 176557 174640 172395 169832 166953 163770 160315 156612 152656 148468 144086 139550 134848 130004 125060 120077 115027 109936 104841 99829.4 94847.5 89917.8 85065.2 80406.6 75852.6 71419.3 67120.3 63080.1 59194.7 55463.8 51893.2 48597.5 45479.6 42517.2 39711.9 37163 34791.4 32557.2 30456.9 28572.1 26850.6 25239 23733 22391.7 21192.2 20076.7 19041.4 18119.7 17312.4 16569.7 15888.9 15278.8 14745.7 14266.6 13839.5 13454.6 13092.9 12781.1 12518.5 12286.5 12007.1 11777.5 11597.5 11455.2 11183.4 10962 10790.6 10669.9 10359.3 10091.2 9872.5 9702.85 9349.04 9010.81 8720.28 8476.26 8087.19 7691.67 7342.49 7036.64 6639.29 6225.63 5856.02 5526.81 5154.85 4767.64 4420.86 4110.56 3791 3462.85 3169.54 2907.37 2653.41 2397.72 2170.04 1967.24 1778.6 1592.69 1427.87 1281.71 1149.32 1021.52 908.701 809.077 720.418 636.435 562.576 497.61 440.454 
0.0362289 0.362289 152627 156665 160535 164211 167668 170885 173836 176500 178855 180892 182591 183936 184919 185539 185788 185657 185148 184271 183029 181418 179448 177142 174509 171550 168280 164730 160924 156859 152556 148053 143392 138561 133584 128503 123383 118194 112963 107728 102578 97459.3 92393.8 87407.6 82620.6 77941.3 73385.9 68968.6 64817.1 60824.7 56991.1 53322.1 49935.7 46731.9 43688 40805.4 38186.3 35749.4 33453.7 31295.6 29358.9 27589.9 25934 24386.5 23008.2 21775.8 20629.5 19565.8 18618.7 17789.1 17025.9 16326.4 15699.5 15151.7 14659.5 14220.6 13825.1 13453.4 13133 12863.2 12624.8 12337.7 12101.8 11916.8 11770.6 11491.4 11263.8 11087.8 10963.7 10644.5 10369 10144.4 9970.03 9606.47 9258.93 8960.4 8709.66 8309.87 7903.47 7544.67 7230.4 6822.11 6397.06 6017.28 5678.99 5296.79 4898.92 4542.6 4223.75 3895.39 3558.21 3256.81 2987.42 2726.48 2463.74 2229.79 2021.41 1827.58 1636.55 1467.18 1317 1180.97 1049.65 933.723 831.356 740.255 653.96 578.067 511.312 452.583 
0.038254 0.38254 156829 160978 164955 168732 172284 175590 178622 181359 183780 185873 187618 189000 190010 190648 190903 190769 190245 189345 188068 186413 184389 182019 179313 176273 172913 169265 165355 161178 156757 152130 147340 142376 137262 132041 126780 121449 116073 110694 105403 100143 94937.6 89814.1 84895.4 80087.2 75406.4 70867.4 66601.7 62499.3 58560.1 54790.2 51310.6 48018.5 44890.8 41928.8 39237.7 36733.6 34374.7 32157.2 30167.2 28349.5 26648 25057.9 23641.7 22375.3 21197.5 20104.5 19131.3 18278.8 17494.7 16775.9 16131.8 15568.9 15063.1 14612.1 14205.7 13823.8 13494.6 13217.4 12972.4 12677.4 12435 12244.9 12094.7 11807.8 11573.9 11393 11265.6 10937.6 10654.5 10423.6 10244.5 9870.96 9513.85 9207.1 8949.46 8538.66 8121.07 7752.39 7429.47 7009.94 6573.18 6182.94 5835.35 5442.62 5033.8 4667.67 4340.04 4002.64 3656.17 3346.48 3069.68 2801.55 2531.57 2291.18 2077.06 1877.9 1681.6 1507.58 1353.26 1213.48 1078.55 959.43 854.245 760.636 671.965 593.982 525.39 465.043 
0.0403924 0.403924 161146 165410 169496 173377 177027 180423 183539 186351 188839 190989 192782 194203 195241 195896 196158 196020 195482 194557 193245 191545 189465 187029 184249 181125 177673 173924 169906 165615 161072 156317 151396 146295 141040 135676 130270 124792 119268 113741 108304 102899 97551 92286.5 87232.3 82291.8 77482.1 72818.3 68435 64219.8 60172.2 56298.4 52723 49340.4 46126.5 43083.1 40317.8 37744.8 35321 33042.4 30997.6 29129.9 27381.6 25747.7 24292.5 22991.3 21781 20657.9 19657.9 18782 17976.3 17237.7 16575.8 15997.5 15477.7 15014.4 14596.8 14204.4 13866.1 13581.2 13329.5 13026.4 12777.3 12582 12427.6 12132.8 11892.5 11706.7 11575.7 11238.7 10947.8 10710.6 10526.5 10142.7 9775.75 9460.55 9195.82 8773.71 8344.62 7965.8 7633.98 7202.91 6754.13 6353.15 5995.98 5592.45 5172.37 4796.16 4459.51 4112.82 3756.82 3438.6 3154.18 2878.67 2601.26 2354.25 2134.24 1929.59 1727.9 1549.08 1390.51 1246.89 1108.24 985.841 877.761 781.574 690.462 610.333 539.852 477.845 
0.0426502 0.426502 165581 169962 174161 178149 181899 185389 188591 191480 194036 196246 198088 199548 200614 201287 201556 201415 200862 199911 198563 196817 194679 192177 189320 186110 182562 178711 174583 170173 165505 160620 155563 150321 144922 139410 133856 128226 122551 116871 111285 105731 100236 94826.4 89633.1 84556.7 79614.6 74822.4 70318.5 65987.3 61828.2 57847.9 54174.1 50698.3 47396 44268.8 41427.4 38783.7 36293.1 33951.8 31850.7 29931.6 28135.1 26456.3 24961.1 23624 22380.5 21226.4 20199 19298.9 18471 17712.1 17032 16437.7 15903.7 15427.6 14998.5 14595.3 14247.7 13955 13696.3 13384.9 13128.9 12928.3 12769.7 12466.7 12219.8 12028.9 11894.3 11548 11249.1 11005.4 10816.2 10421.8 10044.8 9720.92 9448.9 9015.18 8574.28 8185.03 7844.08 7401.15 6940.02 6528 6161 5746.36 5314.73 4928.16 4582.24 4226.01 3860.21 3533.24 3240.99 2957.89 2672.85 2419.05 2192.98 1982.7 1775.45 1591.71 1428.78 1281.21 1138.74 1012.97 901.918 803.085 709.465 627.131 554.71 490.996 
0.0450343 0.450343 170137 174638 178953 183050 186904 190490 193780 196749 199375 201645 203538 205039 206134 206826 207102 206957 206389 205412 204027 202232 200036 197464 194530 191231 187586 183628 179386 174855 170059 165039 159843 154458 148910 143246 137539 131754 125923 120087 114347 108640 102994 97435.5 92099.4 86883.2 81805.2 76881.1 72253.3 67802.9 63529.4 59439.6 55664.7 52093.3 48700.1 45486.8 42567.3 39850.8 37291.7 34886 32727.1 30755.2 28909.3 27184.3 25647.9 24274.1 22996.3 21810.5 20754.7 19829.9 18979.2 18199.5 17500.7 16890 16341.3 15852.1 15411.2 14996.9 14639.7 14339 14073.2 13753.2 13490.2 13284 13121 12809.7 12556.1 12359.8 12221.6 11865.7 11558.6 11308.2 11113.9 10708.6 10321.2 9988.39 9708.89 9263.24 8810.2 8410.24 8059.92 7604.79 7130.97 6707.62 6330.52 5904.47 5460.96 5063.75 4708.32 4342.29 3966.43 3630.46 3330.16 3039.28 2746.4 2485.61 2253.32 2037.25 1824.3 1635.51 1468.09 1316.46 1170.07 1040.85 926.735 825.182 728.986 644.386 569.973 504.506 
0.0475516 0.475516 174817 179442 183875 188086 192045 195730 199110 202161 204859 207192 209137 210679 211804 212515 212799 212650 212066 211062 209639 207795 205538 202896 199880 196491 192745 188679 184321 179665 174736 169579 164240 158706 153006 147186 141322 135378 129387 123390 117492 111629 105827 100116 94632.8 89273.1 84055.4 78995.8 74240.8 69667.9 65276.9 61074.5 57195.8 53526.2 50039.7 46738 43738.2 40947 38317.5 35845.6 33627.3 31601.2 29704.5 27932 26353.4 24941.8 23628.8 22410.4 21325.6 20375.4 19501.3 18700.1 17982 17354.6 16790.8 16288.1 15835.1 15409.4 15042.4 14733.4 14460.3 14131.5 13861.3 13649.4 13481.9 13162.1 12901.4 12699.8 12557.8 12192.1 11876.6 11619.2 11419.6 11003.1 10605.1 10263.1 9975.95 9518.04 9052.54 8641.58 8281.62 7813.97 7327.12 6892.12 6504.66 6066.89 5611.17 5203.04 4837.83 4461.74 4075.53 3730.32 3421.76 3122.88 2821.94 2553.98 2315.3 2093.29 1874.48 1680.5 1508.48 1352.67 1202.26 1069.48 952.226 847.88 749.038 662.111 585.651 518.383 
0.0502097 0.502097 179624 184376 188931 193257 197326 201112 204585 207719 210492 212889 214888 216472 217628 218358 218650 218497 217897 216866 215403 213508 211190 208475 205376 201894 198045 193868 189389 184605 179541 174242 168756 163070 157213 151234 145208 139101 132944 126783 120723 114698 108737 102869 97234.9 91727.8 86366.6 81168 76282.2 71583.6 67071.8 62753.9 58768.5 54998 51415.6 48023.2 44940.9 42072.9 39371.1 36831.3 34552 32470.1 30521.3 28700.1 27078 25627.6 24278.5 23026.6 21912 20935.7 20037.5 19214.3 18476.5 17831.8 17252.5 16736 16270.5 15833.1 15456 15138.5 14857.9 14520.1 14242.4 14024.7 13852.7 13524 13256.2 13049 12903.1 12527.4 12203.1 11938.7 11733.6 11305.7 10896.7 10545.3 10250.3 9779.75 9301.46 8879.2 8509.34 8028.83 7528.59 7081.63 6683.51 6233.71 5765.46 5346.11 4970.86 4584.42 4187.6 3832.89 3515.85 3208.75 2899.54 2624.2 2378.96 2150.85 1926.03 1726.7 1549.96 1389.86 1235.32 1098.88 978.409 871.194 769.634 680.317 601.755 532.637 
0.0530163 0.530163 184561 189444 194123 198569 202749 206639 210208 213428 216277 218740 220794 222421 223610 224360 224660 224502 223886 222826 221324 219377 216994 214205 211021 207443 203488 199196 194594 189679 184476 179031 173394 167552 161534 155390 149199 142924 136598 130267 124041 117851 111725 105696 99907.3 94248.9 88740.3 83398.8 78378.7 73551 68915.2 64478.6 60383.7 56509.6 52828.7 49343.1 46176 43229.2 40453.2 37843.5 35501.6 33362.5 31360.1 29488.9 27822.2 26331.9 24945.8 23659.5 22514.2 21511.1 20588.2 19742.3 18984.3 18321.9 17726.7 17196 16717.7 16268.3 15880.8 15554.6 15266.2 14919.1 14633.8 14410.2 14233.4 13895.7 13620.5 13407.7 13257.7 12871.7 12538.5 12266.8 12056.1 11616.4 11196.2 10835.2 10532 10048.5 9557.1 9123.23 8743.21 8249.5 7735.51 7276.26 6867.2 6405.03 5923.92 5493.04 5107.48 4710.42 4302.69 3938.23 3612.48 3296.94 2979.23 2696.33 2444.35 2209.96 1978.96 1774.16 1592.55 1428.06 1269.27 1129.08 1005.3 895.138 790.787 699.015 618.293 547.276 
0.0559798 0.559798 189631 194648 199456 204024 208319 212316 215983 219292 222219 224749 226859 228531 229752 230523 230831 230669 230036 228948 227404 225403 222955 220089 216818 213142 209079 204668 199940 194890 189543 183949 178158 172155 165971 159659 153297 146850 140351 133846 127448 121088 114795 108599 102652 96838 91178.1 85689.9 80531.9 75571.5 70808.4 66249.9 62042.6 58062 54280 50698.6 47444.5 44416.8 41564.5 38883.2 36476.9 34279 32221.6 30299 28586.5 27055.3 25631.1 24309.5 23132.7 22102 21153.8 20284.7 19505.8 18825.2 18213.6 17668.3 17177 16715.2 16317.1 15981.9 15685.6 15329 15035.8 14806.1 14624.4 14277.4 13994.7 13776 13621.9 13225.3 12883 12603.8 12387.2 11935.5 11503.7 11132.8 10821.3 10324.6 9819.65 9373.86 8983.39 8476.12 7948.01 7476.15 7055.85 6580.99 6086.66 5643.94 5247.79 4839.82 4420.89 4046.42 3711.72 3387.51 3061.07 2770.4 2511.5 2270.67 2033.32 1822.9 1636.3 1467.29 1304.14 1160.1 1032.92 919.728 812.511 718.218 635.279 562.311 
0.059109 0.59109 194837 199992 204932 209625 214038 218145 221912 225312 228320 230920 233088 234806 236060 236852 237169 237002 236352 235233 233647 231592 229077 226132 222771 218994 214819 210287 205429 200241 194747 188999 183049 176881 170528 164042 157506 150882 144204 137521 130947 124413 117946 111581 105470 99496.8 93681.5 88042.5 82742.9 77646.4 72752.5 68068.9 63746 59656.1 55770.3 52090.5 48747.1 45636.2 42705.6 39950.7 37478.4 35220.2 33106.3 31130.9 29371.4 27798.1 26334.8 24976.9 23767.9 22708.8 21734.6 20841.6 20041.4 19342.1 18713.7 18153.4 17648.6 17174.1 16765.1 16420.7 16116.3 15749.8 15448.7 15212.6 15025.9 14669.4 14378.9 14154.2 13995.9 13588.4 13236.7 12949.9 12727.3 12263.2 11819.6 11438.5 11118.4 10608.1 10089.3 9631.22 9230.04 8708.84 8166.23 7681.41 7249.58 6761.67 6253.77 5798.9 5391.87 4972.7 4542.27 4157.52 3813.63 3480.51 3145.11 2846.46 2580.45 2333.01 2089.15 1872.95 1681.23 1507.58 1339.94 1191.95 1061.28 944.98 834.819 737.937 652.721 577.749 
0.0624131 0.624131 200183 205479 210555 215377 219911 224130 228001 231494 234584 237255 239483 241248 242537 243351 243676 243505 242837 241687 240058 237946 235362 232336 228883 225002 220713 216057 211065 205734 200091 194185 188071 181734 175207 168543 161828 155022 148161 141294 134540 127826 121182 114642 108364 102227 96251.8 90458.1 85013.1 79776.7 74748.6 69936.4 65494.9 61292.8 57300.4 53519.7 50084.6 46888.3 43877.3 41046.8 38506.6 36186.5 34014.6 31985 30177.2 28560.8 27057.3 25662.2 24420 23331.9 22330.9 21413.4 20591.2 19872.8 19227.1 18651.5 18132.8 17645.3 17225 16871.2 16558.5 16182 15872.5 15630 15438.2 15071.9 14773.4 14542.6 14379.9 13961.2 13599.9 13305.2 13076.5 12599.7 12143.9 11752.3 11423.5 10899.1 10366.1 9895.47 9483.28 8947.78 8390.28 7892.17 7448.48 6947.19 6425.35 5958 5539.8 5109.13 4666.89 4271.59 3918.26 3576.01 3231.4 2924.56 2651.25 2397.02 2146.47 1924.33 1727.36 1548.94 1376.71 1224.66 1090.39 970.907 857.723 758.183 670.629 593.601 
0.0659019 0.659019 205671 211112 216327 221281 225939 230275 234251 237840 241015 243760 246048 247862 249186 250022 250356 250181 249494 248313 246639 244469 241814 238706 235158 231171 226764 221980 216852 211375 205576 199508 193227 186717 180010 173164 166264 159272 152222 145167 138228 131330 124504 117785 111335 105029 98890.5 92938 87343.7 81963.8 76797.8 71853.7 67290.4 62973.1 58871.3 54986.9 51457.6 48173.8 45080.2 42172.1 39562.3 37178.5 34947.1 32861.8 31004.5 29343.8 27799.1 26365.7 25089.4 23971.5 22943.1 22000.5 21155.7 20417.6 19754.2 19162.8 18629.9 18129.1 17697.3 17333.7 17012.4 16625.6 16307.7 16058.4 15861.4 15485.1 15178.4 14941.2 14774.1 14343.9 13972.7 13669.9 13435 12945.1 12476.8 12074.5 11736.6 11197.9 10650.2 10166.8 9743.26 9193.08 8620.3 8108.53 7652.68 7137.64 6601.5 6121.34 5691.67 5249.2 4794.83 4388.69 4025.68 3674.04 3319.99 3004.73 2723.93 2462.74 2205.31 1977.09 1774.71 1591.41 1414.45 1258.23 1120.29 997.524 881.237 778.968 689.014 609.874 
0.0695856 0.695856 211304 216895 222252 227342 232128 236582 240667 244355 247616 250436 252787 254650 256011 256870 257213 257033 256327 255114 253394 251165 248437 245243 241598 237502 232974 228060 222791 217164 211206 204972 198519 191831 184940 177906 170818 163634 156392 149143 142014 134927 127915 121011 114384 107906 101599 95483.5 89735.9 84208.7 78901.2 73821.7 69133.5 64697.9 60483.7 56493 52867 49493.2 46314.9 43327.1 40645.8 38196.8 35904.3 33761.9 31853.7 30147.5 28560.5 27087.8 25776.6 24628.1 23571.5 22603.1 21735.2 20976.8 20295.3 19687.7 19140.1 18625.6 18182 17808.5 17478.4 17080.9 16754.3 16498.3 16295.8 15909.2 15594.2 15350.5 15178.7 14736.8 14355.4 14044.3 13803 13299.7 12818.5 12405.2 12058.1 11504.6 10941.9 10445.2 10010.1 9444.87 8856.4 8330.61 7862.27 7333.13 6782.31 6288.99 5847.56 5392.97 4926.16 4508.89 4135.94 3774.67 3410.92 3087.03 2798.54 2530.19 2265.72 2031.24 1823.32 1634.99 1453.19 1292.69 1150.97 1024.85 905.374 800.304 707.885 626.578 
0.0734754 0.734754 217085 222829 228333 233562 238478 243054 247252 251040 254391 257288 259703 261617 263015 263898 264250 264065 263340 262094 260326 258036 255234 251953 248208 244000 239348 234299 228886 223105 216985 210580 203951 197079 190000 182774 175491 168111 160670 153224 145900 138619 131414 124322 117513 110858 104379 98095.8 92191 86512.6 81059.9 75841.4 71024.9 66468 62138.5 58038.6 54313.4 50847.3 47582 44512.5 41757.9 39241.9 36886.6 34685.6 32725.2 30972.3 29341.9 27828.9 26481.8 25301.9 24216.4 23221.4 22329.8 21550.7 20850.5 20226.3 19663.8 19135.2 18679.4 18295.7 17956.6 17548.3 17212.7 16949.6 16741.7 16344.5 16020.8 15770.4 15594 15140 14748.1 14428.6 14180.6 13663.5 13169.2 12744.6 12388 11819.3 11241.3 10731 10284 9703.27 9098.7 8558.53 8077.38 7533.76 6967.87 6461.05 6007.55 5540.51 5060.93 4632.25 4249.09 3877.94 3504.24 3171.49 2875.1 2599.41 2327.7 2086.81 1873.2 1679.72 1492.95 1328.06 1182.46 1052.88 930.144 822.199 727.252 643.72 
0.0775825 0.775825 223017 228917 234572 239943 244995 249695 254008 257899 261342 264318 266799 268766 270202 271108 271471 271280 270536 269255 267440 265087 262208 258837 254990 250667 245888 240701 235140 229201 222914 216334 209524 202464 195192 187768 180286 172704 165061 157410 149886 142406 135005 127719 120724 113887 107231 100776 94710.1 88876.4 83274.7 77913.7 72965.6 68284.2 63836.4 59624.4 55797.5 52236.6 48882.2 45728.8 42898.9 40314.1 37894.5 35633.3 33619.4 31818.6 30143.6 28589.3 27205.4 25993.2 24878.1 23856 22940 22139.5 21420.3 20779 20201.1 19658 19189.8 18795.6 18447.2 18027.8 17683 17412.8 17199.1 16791.1 16458.6 16201.3 16020.1 15553.7 15151.1 14822.8 14568.1 14036.9 13529.1 13092.8 12726.5 12142.3 11548.5 11024.2 10565 9968.4 9347.32 8792.38 8298.09 7739.62 7158.26 6637.6 6171.7 5691.9 5199.22 4758.82 4365.19 3983.9 3599.99 3258.15 2953.66 2670.44 2391.31 2143.83 1924.39 1725.62 1533.74 1364.35 1214.77 1081.65 955.559 844.665 747.124 661.309 
0.0819192 0.819192 229101 235163 240972 246490 251679 256508 260938 264936 268472 271529 274079 276099 277574 278505 278877 278682 277917 276601 274736 272319 269362 265899 261947 257506 252597 247268 241556 235455 228996 222236 215240 207988 200517 192891 185205 177416 169564 161705 153976 146292 138688 131204 124018 116994 110156 103526 97294.1 91301.3 85546.7 80039.4 74956.3 70147.2 65578.1 61251.2 57319.8 53661.8 50215.8 46976.4 44069.3 41414 38928.3 36605.5 34536.6 32686.7 30966 29369.3 27947.7 26702.4 25556.8 24506.8 23565.8 22743.6 22004.7 21345.9 20752.2 20194.4 19713.4 19308.4 18950.5 18519.6 18165.5 17887.8 17668.4 17249.2 16907.6 16643.4 16457.2 15978 15564.5 15227.2 14965.6 14419.8 13898.2 13450.1 13073.7 12473.6 11863.5 11325 10853.2 10240.4 9602.34 9032.27 8524.48 7950.78 7353.56 6818.69 6340.08 5847.2 5341.07 4888.66 4484.29 4092.6 3698.21 3347.04 3034.25 2743.3 2456.55 2202.32 1976.89 1772.7 1575.59 1401.57 1247.91 1111.16 981.63 867.71 767.508 679.352 
0.0864984 0.864984 235341 241568 247535 253203 258533 263494 268045 272151 275784 278924 281543 283618 285134 286090 286473 286272 285486 284135 282219 279736 276698 273141 269082 264519 259477 254003 248135 241868 235232 228289 221102 213652 205978 198144 190249 182248 174182 166109 158169 150276 142466 134777 127396 120181 113156 106345 99943.9 93787.9 87876.7 82219.4 76997.8 72057.7 67364.1 62919.4 58880.9 55123.3 51583.5 48255.9 45269.6 42541.9 39988.6 37602.5 35477.3 33576.9 31809.4 30169.2 28708.8 27429.6 26252.9 25174.3 24207.7 23363 22604 21927.3 21317.4 20744.4 20250.3 19834.3 19466.6 19024 18660.2 18375 18149.6 17719 17368.1 17096.7 16905.4 16413.2 15988.4 15642 15373.2 14812.6 14276.7 13816.4 13429.8 12813.3 12186.7 11633.4 11148.8 10519.3 9863.87 9278.26 8756.65 8167.32 7553.84 7004.4 6512.76 6006.45 5486.53 5021.8 4606.42 4204.06 3798.93 3438.2 3116.89 2818.01 2523.45 2262.31 2030.73 1820.98 1618.5 1439.74 1281.9 1141.43 1008.36 891.343 788.411 697.854 
0.0913335 0.913335 241738 248133 254263 260085 265560 270656 275330 279548 283280 286506 289196 291327 292884 293866 294259 294053 293245 291858 289889 287339 284219 280565 276395 271709 266529 260907 254879 248442 241626 234494 227112 219459 211577 203530 195420 187202 178916 170624 162468 154361 146338 138440 130859 123447 116232 109236 102660 96337.1 90265.2 84454.1 79090.6 74016.2 69195.1 64629.5 60481.3 56621.6 52985.5 49567.5 46500 43698.2 41075.5 38624.5 36441.5 34489.5 32674 30989.2 29489.2 28175.2 26966.5 25858.5 24865.6 23998 23218.4 22523.3 21896.8 21308.2 20800.7 20373.4 19995.7 19541.1 19167.4 18874.5 18642.9 18200.6 17840.2 17561.4 17364.9 16859.3 16423 16067.1 15791 15215.2 14664.7 14191.9 13794.8 13161.6 12517.9 11949.6 11451.8 10805.2 10132 9530.45 8994.66 8389.31 7759.15 7194.78 6689.77 6169.7 5635.66 5158.3 4731.63 4318.33 3902.19 3531.65 3201.6 2894.61 2592.04 2323.79 2085.93 1870.48 1662.49 1478.87 1316.74 1172.45 1035.77 915.569 809.84 716.822 
0.0964388 0.964388 248292 254861 261157 267138 272761 277995 282796 287128 290961 294274 297037 299226 300825 301835 302238 302026 301197 299771 297750 295131 291926 288173 283890 279076 273756 267981 261790 255178 248178 240852 233270 225410 217314 209049 200719 192278 183768 175251 166874 158546 150306 142194 134407 126794 119384 112198 105444 98949.3 92712.7 86744.1 81235.1 76023.2 71071.3 66381.9 62121.3 58156.9 54422.2 50911.5 47760.8 44883.1 42189.2 39671.8 37429.7 35424.7 33560 31829.5 30288.8 28939.2 27697.7 26559.7 25539.9 24648.7 23847.9 23134 22490.6 21886 21364.7 20925.8 20537.9 20070.9 19687.1 19386.3 19148.4 18694.1 18323.9 18037.5 17835.8 17316.4 16868.3 16502.8 16219.2 15627.7 15062.4 14576.7 14168.8 13518.5 12857.3 12273.6 11762.4 11098.2 10406.7 9788.87 9238.55 8616.79 7969.54 7389.87 6871.17 6337 5788.47 5298.16 4859.92 4435.42 4008 3627.41 3288.42 2973.1 2662.32 2386.8 2142.49 1921.19 1707.57 1518.97 1352.45 1204.24 1063.86 940.395 831.799 736.259 
0.10183 1.0183 255006 261753 268219 274361 280136 285512 290442 294892 298828 302231 305069 307317 308960 309996 310410 310192 309341 307877 305801 303111 299819 295965 291566 286622 281158 275227 268869 262078 254888 247365 239577 231505 223190 214701 206146 197477 188737 179989 171386 162833 154370 146039 138041 130223 122612 115231 108295 101625 95219.6 89089.6 83431.7 78078.8 72993 68176.9 63801 59729.4 55893.8 52288.1 49052.3 46096.7 43330 40744.5 38441.7 36382.6 34467.4 32690.1 31107.7 29721.6 28446.6 27277.8 26230.4 25315.2 24492.8 23759.5 23098.7 22477.8 21942.4 21491.6 21093.2 20613.6 20219.4 19910.4 19666.1 19199.6 18819.4 18525.3 18318 17784.7 17324.4 16949 16657.7 16050.3 15469.7 14970.9 14551.9 13884 13205 12605.5 12080.4 11398.3 10688.1 10053.6 9488.36 8849.78 8185.03 7589.69 7056.96 6508.34 5944.99 5441.42 4991.33 4555.35 4116.37 3725.49 3377.33 3053.49 2734.31 2451.34 2200.42 1973.14 1753.74 1560.05 1389.01 1236.8 1092.62 965.823 854.291 756.167 
0.107522 1.07522 261879 268807 275448 281755 287686 293206 298270 302840 306882 310377 313291 315600 317286 318351 318776 318552 317678 316175 314042 311280 307899 303941 299424 294347 288736 282645 276115 269141 261758 254032 246034 237744 229205 220487 211702 202799 193823 184840 176005 167222 158530 149975 141761 133733 125916 118337 111214 104364 97785.8 91490.6 85680.2 80183.1 74960.3 70014.3 65520.5 61339.2 57400.2 53697.3 50374.3 47339.1 44497.8 41842.6 39477.8 37363.1 35396.3 33571.1 31946.1 30522.7 29213.2 28013 26937.4 25997.5 25152.9 24399.8 23721.2 23083.6 22533.8 22070.8 21661.7 21169.2 20764.4 20447 20196.2 19717 19326.6 19024.5 18811.7 18264 17791.3 17405.8 17106.7 16482.9 15886.6 15374.3 14944.1 14258.2 13560.9 12945.2 12406 11705.5 10976.1 10324.5 9744.08 9088.29 8405.62 7794.24 7247.15 6683.75 6105.21 5588.07 5125.85 4678.12 4227.31 3825.9 3468.35 3135.78 2808 2517.41 2259.72 2026.32 1801 1602.09 1426.45 1270.14 1122.07 991.853 877.315 776.546 
0.113532 1.13532 268909 276024 282843 289319 295410 301078 306278 310970 315121 318710 321702 324073 325805 326898 327335 327105 326207 324663 322474 319637 316166 312101 307463 302250 296488 290233 283528 276367 268785 260852 252640 244127 235358 226407 217386 208244 199027 189803 180730 171711 162786 154001 145567 137323 129297 121514 114200 107166 100411 93946.9 87980.6 82335.8 76972.8 71894 67279.6 62986 58941.2 55139 51726.7 48610 45692.4 42966 40537.7 38366.2 36346.6 34472.5 32803.8 31342.1 29997.6 28765.1 27660.6 26695.5 25828.2 25054.9 24358.1 23703.3 23138.7 22663.4 22243.3 21737.5 21321.8 20996 20738.4 20246.4 19845.4 19535.3 19316.8 18754.3 18268.9 17873.1 17566 16925.4 16313.1 15787.1 15345.3 14641 13924.9 13292.8 12739.1 12019.7 11270.8 10601.7 10005.7 9332.29 8631.3 8003.49 7441.72 6863.19 6269.12 5738.1 5263.47 4803.72 4340.81 3928.61 3561.47 3219.97 2883.39 2585 2320.39 2080.72 1849.36 1645.1 1464.75 1304.24 1152.2 1018.48 900.868 797.395 
0.119878 1.19878 276097 283402 290402 297052 303306 309125 314464 319282 323543 327228 330300 332735 334513 335635 336083 335848 334926 333341 331093 328180 324616 320443 315680 310328 304412 297990 291106 283754 275969 267824 259392 250652 241649 232458 223196 213810 204347 194876 185561 176301 167137 158117 149458 140993 132753 124762 117252 110030 103095 96457.9 90332.1 84536.4 79030 73815.6 69077.8 64669.4 60516.6 56612.7 53109.2 49909.2 46913.7 44114.4 41621.1 39391.7 37318.1 35393.8 33680.6 32179.8 30799.3 29533.9 28399.9 27409 26518.5 25724.6 25009.1 24336.8 23757.2 23269.1 22837.8 22318.5 21891.7 21557.2 21292.7 20787.5 20375.9 20057.4 19833 19255.6 18757.2 18350.8 18035.5 17377.8 16749.1 16209.1 15755.5 15032.3 14297.1 13648.1 13079.5 12341 11572.1 10885 10273.1 9581.72 8861.99 8217.41 7640.62 7046.63 6436.68 5891.47 5404.15 4932.11 4456.82 4033.62 3656.66 3306.03 2960.46 2654.09 2382.41 2136.33 1898.78 1689.07 1503.9 1339.1 1182.99 1045.7 924.946 818.707 
0.126579 1.26579 283437 290936 298123 304950 311369 317344 322824 327770 332145 335928 339082 341581 343406 344558 345019 344777 343830 342203 339895 336905 333247 328963 324073 318579 312505 305913 298846 291298 283306 274944 266288 257316 248074 238639 229130 219494 209779 200057 190494 180988 171581 162321 153432 144742 136282 128079 120369 112955 105836 99022.4 92733.7 86783.9 81131.2 75778.1 70914.3 66388.8 62125.5 58117.8 54521.2 51236.1 48161 45287.2 42727.7 40439 38310.3 36334.8 34576 33035.4 31618.2 30319.1 29154.9 28137.7 27223.5 26408.5 25674 24983.9 24388.8 23887.8 23445 22911.9 22473.7 22130.3 21858.8 21340.2 20917.6 20590.7 20360.3 19767.5 19255.9 18838.7 18515 17839.8 17194.4 16640 16174.4 15431.9 14677.2 14010.9 13427.3 12669.1 11879.7 11174.4 10546.2 9836.46 9097.6 8435.88 7843.75 7233.97 6607.81 6048.1 5547.83 5063.24 4575.32 4140.86 3753.88 3393.93 3039.17 2724.65 2445.75 2193.13 1949.27 1733.98 1543.88 1374.7 1214.44 1073.5 949.537 840.474 
0.133655 1.33655 290924 298621 305997 313004 319593 325726 331351 336428 340918 344800 348038 350603 352476 353659 354132 353883 352912 351241 348873 345804 342048 337651 332633 326993 320759 313993 306739 298991 290789 282206 273322 264113 254626 244942 235182 225291 215320 205341 195526 185768 176113 166608 157484 148565 139882 131462 123549 115939 108631 101638 95183 89076.1 83274.1 77779.6 72787.4 68142.3 63766.4 59652.9 55961.2 52589.4 49433 46483.4 43856.2 41507.1 39322.1 37294.5 35489.3 33907.9 32453.3 31119.9 29925 28880.9 27942.6 27106 26352.2 25643.7 25033 24518.7 24064.2 23517.1 23067.3 22714.8 22436.1 21903.8 21470.1 21134.5 20898.1 20289.6 19764.5 19336.3 19004 18311 17648.5 17079.5 16601.6 15839.5 15064.9 14381 13781.9 13003.7 12193.5 11469.6 10824.8 10096.3 9337.89 8658.69 8050.93 7425.04 6782.34 6207.85 5694.36 5196.97 4696.16 4250.23 3853.03 3483.57 3119.44 2796.61 2510.35 2251.06 2000.75 1779.78 1584.66 1411.01 1246.52 1101.86 974.617 862.673 
0.141126 1.41126 298554 306453 314023 321214 327976 334269 340042 345252 349860 353844 357166 359799 361721 362935 363420 363165 362168 360454 358023 354873 351020 346507 341357 335570 329172 322228 314784 306833 298416 289608 280491 271040 261304 251366 241351 231200 220968 210726 200654 190640 180732 170978 161615 152461 143550 134910 126789 118979 111480 104304 97679.5 91412.4 85458.2 79819.6 74696.4 69929.5 65438.9 61217.4 57429 53968.7 50729.5 47702.6 45006.5 42595.7 40353.5 38272.7 36420.1 34797.3 33304.5 31936.1 30709.9 29638.3 28675.5 27817 27043.3 26316.3 25689.5 25161.8 24695.4 24133.9 23672.4 23310.6 23024.6 22478.3 22033.2 21688.8 21446.2 20821.8 20282.9 19843.4 19502.4 18791.3 18111.4 17527.5 17037 16255 15460 14758.2 14143.4 13344.8 12513.3 11770.4 11108.7 10361.1 9582.81 8885.79 8262.09 7619.79 6960.22 6370.67 5843.71 5333.28 4819.33 4361.7 3954.09 3574.94 3201.26 2869.96 2576.19 2310.1 2053.23 1826.46 1626.22 1448.02 1279.21 1130.76 1000.18 885.299 
0.149014 1.49014 306317 314422 322189 329567 336504 342961 348884 354229 358957 363045 366454 369155 371127 372372 372870 372608 371585 369827 367333 364101 360148 355518 350234 344296 337732 330607 322970 314812 306176 297139 287784 278088 268099 257902 247626 237212 226714 216206 205872 195598 185432 175424 165817 156426 147283 138418 130086 122073 114379 107016 100220 93789.5 87680.4 81895.2 76638.8 71747.9 67140.5 62809.3 58922.4 55372.1 52048.7 48943 46176.8 43703.4 41402.8 39267.9 37367.1 35702.1 34170.5 32766.6 31508.4 30409.1 29421.1 28540.3 27746.5 27000.7 26357.6 25816.1 25337.6 24761.4 24287.9 23916.8 23623.3 23062.8 22606.1 22252.8 22003.9 21363.2 20810.3 20359.4 20009.6 19279.9 18582.4 17983.2 17480 16677.7 15862 15141.9 14511.2 13691.8 12838.7 12076.5 11397.6 10630.5 9831.99 9116.86 8476.93 7817.93 7141.22 6536.33 5995.67 5471.96 4944.65 4475.12 4056.91 3667.9 3284.5 2944.59 2643.18 2370.17 2106.62 1873.95 1668.51 1485.67 1312.48 1160.16 1026.19 908.32 
0.157344 1.57344 314202 322515 330482 338050 345167 351789 357865 363348 368198 372390 375887 378657 380681 381958 382468 382200 381151 379347 376789 373474 369418 364669 359249 353158 346426 339118 331283 322916 314057 304788 295192 285246 275000 264541 254001 243319 232550 221771 211171 200633 190205 179940 170086 160453 151075 141981 133435 125216 117324 109771 102799 96203.8 89937.4 84003.3 78611.6 73594.9 68868.8 64426.1 60439.1 56797.5 53388.5 50202.9 47365.5 44828.4 42468.6 40278.7 38329 36621.2 35050.1 33610 32319.5 31191.8 30178.5 29275 28460.8 27695.7 27036 26480.6 25989.8 25398.8 24913.1 24532.4 24231.4 23656.5 23188.1 22825.7 22570.3 21913.1 21346 20883.5 20524.6 19776.2 19060.7 18446.2 17930 17107 16270.3 15531.7 14884.7 14044.2 13169.2 12387.4 11691 10904.1 10085.1 9351.54 8695.14 8019.18 7325.04 6704.58 6150.01 5612.82 5071.94 4590.32 4161.34 3762.31 3369.05 3020.39 2711.22 2431.18 2160.85 1922.19 1711.46 1523.91 1346.26 1190.03 1052.6 931.702 
0.166139 1.66139 322195 330719 338889 346649 353946 360738 366968 372590 377563 381863 385448 388289 390364 391673 392197 391921 390846 388996 386373 382974 378815 373945 368387 362141 355237 347743 339710 331130 322046 312540 302701 292502 281995 271270 260462 249508 238465 227412 216542 205736 195043 184517 174412 164534 154917 145592 136829 128401 120308 112563 105414 98650.8 92225.1 86140 80611.2 75466.8 70620.6 66064.9 61976.5 58242.2 54746.5 51479.8 48570.3 45968.6 43548.8 41303.3 39304 37552.7 35941.6 34464.9 33141.6 31985.2 30946.1 30019.6 29184.7 28400.2 27723.7 27154.2 26650.9 26044.9 25546.8 25156.4 24847.7 24258.2 23777.9 23406.3 23144.4 22470.5 21889 21414.7 21046.7 20279.2 19545.6 18915.4 18386.1 17542.1 16684.2 15926.8 15263.3 14401.5 13504.2 12702.4 11988.3 11181.5 10341.6 9589.4 8916.31 8223.15 7511.36 6875.12 6306.44 5755.59 5200.95 4707.08 4267.19 3858.01 3454.74 3097.22 2780.18 2493.02 2215.81 1971.08 1754.99 1562.68 1380.51 1220.3 1079.38 955.4 
0.175426 1.75426 330275 339013 347388 355343 362823 369785 376171 381934 387032 391440 395115 398027 400154 401496 402033 401751 400648 398752 396063 392579 388315 383323 377626 371224 364147 356465 348230 339434 330123 320379 310292 299837 289068 278073 266994 255765 244445 233116 221973 210896 199935 189145 178786 168660 158803 149244 140260 131621 123325 115386 108058 101125 94538.1 88300.3 82632.9 77359.5 72391.7 67721.7 63530.8 59702.9 56119.5 52770.9 49788.4 47121.5 44641 42339.1 40289.7 38494.5 36843 35329.3 33972.8 32787.4 31722.2 30772.5 29916.7 29112.4 28419 27835.2 27319.2 26698.1 26187.5 25787.3 25470.9 24866.6 24374.2 23993.3 23724.9 23034.1 22437.9 21951.8 21574.5 20787.8 20035.8 19389.8 18847.2 17982.1 17102.6 16326.2 15646.1 14762.6 13842.8 13021 12289 11461.9 10601 9829.9 9139.93 8429.38 7699.74 7047.54 6464.6 5899.93 5331.38 4825.13 4374.2 3954.77 3541.39 3174.89 2849.91 2555.55 2271.38 2020.52 1799 1601.87 1415.13 1250.9 1106.45 979.361 
0.185232 1.85232 338421 347375 355956 364107 371772 378905 385449 391354 396578 401094 404860 407844 410023 411399 411949 411659 410529 408587 405831 402261 397893 392778 386940 380379 373128 365256 356818 347806 338265 328280 317946 307233 296197 284932 273579 262074 250474 238865 227448 216097 204866 193810 183196 172820 162719 152925 143720 134867 126367 118232 110723 103619 96869.7 90478.2 84670.9 79267.5 74177.2 69392 65097.7 61175.4 57503.7 54072.5 51016.4 48283.7 45742 43383.4 41283.4 39443.9 37751.7 36200.7 34810.7 33596.1 32504.6 31531.5 30654.5 29830.5 29120 28521.7 27993.1 27356.6 26833.4 26423.3 26099.1 25479.9 24975.4 24585 24310 23602.2 22991.4 22493.2 22106.7 21300.5 20529.9 19868 19312 18425.6 17524.4 16728.9 16032 15126.7 14184.3 13342.2 12592.1 11744.6 10862.4 10072.3 9365.36 8637.29 7889.65 7221.36 6624.05 6045.45 5462.88 4944.14 4482.09 4052.31 3628.73 3253.2 2920.2 2618.58 2327.4 2070.35 1843.37 1641.37 1450.03 1281.75 1133.74 1003.52 
0.195586 1.95586 346604 355774 364563 372911 380761 388067 394769 400817 406167 410792 414649 417706 419938 421346 421910 421613 420456 418466 415644 411988 407514 402275 396296 389577 382150 374088 365446 356216 346444 336218 325633 314662 303359 291822 280194 268410 256531 244641 232948 221323 209819 198496 187625 176999 166654 156622 147195 138128 129422 121090 113400 106125 99212.1 92666 86718.3 81184.2 75970.8 71069.9 66671.8 62654.6 58894.1 55379.9 52250 49451.2 46848.1 44432.4 42281.6 40397.6 38664.6 37076 35652.4 34408.4 33290.6 32293.9 31395.7 30551.8 29824.1 29211.4 28669.9 28018 27482.2 27062.3 26730.2 26096 25579.3 25179.5 24897.8 24172.9 23547.3 23037.1 22641.2 21815.6 21026.3 20348.4 19779 18871.1 17948.2 17133.4 16419.7 15492.5 14527.2 13664.8 12896.6 12028.6 11125.1 10315.9 9591.81 8846.14 8080.42 7395.98 6784.22 6191.63 5594.97 5063.69 4590.47 4150.3 3716.48 3331.86 2990.81 2681.89 2383.68 2120.41 1887.95 1681.06 1485.09 1312.75 1161.15 1027.78 
0.206519 2.06519 354790 364176 373173 381718 389753 397232 404092 410283 415760 420494 424442 427570 429855 431297 431874 431571 430386 428349 425460 421718 417138 411776 405655 398778 391175 382923 374077 364629 354626 344159 333324 322093 310524 298713 286811 274749 262589 250419 238449 226550 214775 203184 192056 181179 170590 160321 150671 141390 132479 123950 116078 108631 101555 94854.4 88766.3 83101.5 77765 72748.4 68246.4 64134.3 60285 56687.8 53483.9 50619.1 47954.5 45481.7 43280.2 41351.7 39577.7 37951.6 36494.4 35221 34076.8 33056.6 32137.2 31273.3 30528.4 29901.3 29347 28679.7 28131.3 27701.4 27361.5 26712.3 26183.4 25774.2 25485.8 24743.8 24103.4 23581.1 23175.9 22330.8 21522.9 20829 20246.1 19316.8 18372.1 17538 16807.5 15858.4 14870.3 13987.5 13201.1 12312.7 11387.8 10559.5 9818.34 9055.05 8271.26 7570.65 6944.44 6337.86 5727.1 5183.28 4698.88 4248.31 3804.25 3410.55 3061.44 2745.23 2439.97 2170.49 1932.53 1720.76 1520.17 1343.75 1188.57 1052.05 
0.218063 2.18063 362936 372538 381741 390483 398703 406353 413371 419704 425306 430149 434188 437388 439725 441200 441790 441480 440268 438185 435230 431401 426716 421231 414970 407934 400157 391716 382666 373001 362769 352061 340977 329489 317654 305572 293397 281058 268619 256169 243924 231752 219706 207849 196466 185339 174507 164003 154131 144637 135521 126796 118744 111125 103887 97032.4 90804.5 85009.6 79550.6 74418.8 69813.4 65606.9 61669.2 57989.5 54712 51781.4 49055.6 46526.1 44274 42301.2 40486.5 38823.1 37332.4 36029.8 34859.2 33815.6 32875.1 31991.4 31229.4 30587.8 30020.9 29338.3 28777.2 28337.5 27989.7 27325.7 26784.6 26366 26071 25311.9 24656.8 24122.6 23708.1 22843.5 22017.1 21307.2 20711 19760.3 18793.9 17940.7 17193.4 16222.5 15211.8 14308.7 13504.3 12595.4 11649.3 10802 10043.8 9262.97 8461.18 7744.48 7103.89 6483.38 5858.61 5302.29 4806.77 4345.86 3891.6 3488.86 3131.74 2808.27 2496 2220.33 1976.91 1760.28 1555.07 1374.6 1215.87 1076.21 
0.230253 2.30253 370993 380809 390216 399152 407554 415374 422548 429022 434748 439699 443827 447098 449487 450995 451598 451281 450042 447912 444892 440978 436189 430582 424182 416990 409041 400412 391162 381282 370822 359877 348547 336803 324706 312356 299911 287298 274582 261856 249339 236896 224584 212464 200828 189454 178381 167643 157552 147848 138529 129611 121380 113592 106193 99186.6 92820.4 86896.9 81316.6 76070.9 71363.3 67063.4 63038.3 59276.9 55926.6 52930.9 50144.6 47559 45256.9 43240.3 41385.3 39684.9 38161.2 36829.6 35633.1 34566.3 33605 32701.6 31922.7 31266.9 30687.3 29989.6 29416.1 28966.6 28611.1 27932.3 27379.2 26951.3 26649.8 25873.9 25204.2 24658.1 24234.4 23350.7 22505.9 21780.2 21170.8 20199 19211.1 18339 17575.1 16582.7 15549.5 14626.3 13804.1 12875 11907.9 11041.8 10266.8 9468.61 8649.02 7916.41 7261.6 6627.32 5988.67 5420 4913.49 4442.34 3977.99 3566.32 3201.26 2870.61 2551.41 2269.62 2020.8 1799.35 1589.59 1405.12 1242.86 1100.1 
0.243123 2.43123 378902 388927 398534 407660 416242 424229 431555 438167 444016 449072 453288 456629 459069 460609 461225 460901 459636 457461 454376 450378 445488 439761 433225 425879 417760 408947 399500 389410 378727 367548 355977 343983 331628 319015 306304 293422 280435 267438 254655 241946 229371 216993 205109 193492 182183 171217 160911 151000 141483 132374 123967 116014 108457 101301 94799 88749.2 83050.1 77692.5 72884.5 68493 64382.1 60540.5 57118.8 54059.2 51213.6 48572.8 46221.6 44162.1 42267.5 40530.9 38974.6 37614.7 36392.7 35303.2 34321.3 33398.7 32603.2 31933.4 31341.5 30628.9 30043.2 29584 29221 28527.8 27962.9 27525.8 27217.9 26425.4 25741.5 25183.7 24751 23848.4 22985.7 22244.5 21622.1 20629.6 19620.7 18729.9 17949.7 16936.2 15880.9 14938.1 14098.3 13149.5 12161.8 11277.2 10485.6 9670.46 8833.39 8085.17 7416.4 6768.59 6116.33 5535.54 5018.23 4537.04 4062.79 3642.34 3269.5 2931.8 2605.8 2318 2063.87 1837.71 1623.48 1435.07 1269.35 1123.55 
0.256714 2.56714 386579 396807 406609 415920 424676 432825 440300 447045 453012 458171 462473 465881 468371 469942 470570 470240 468949 466730 463582 459504 454514 448671 442003 434509 426225 417234 407595 397300 386401 374996 363190 350953 338347 325479 312510 299368 286118 272857 259815 246849 234019 221389 209265 197413 185875 174686 164171 154059 144349 135056 126479 118364 110655 103354 96719.9 90547.5 84732.9 79266.8 74361.4 69880.9 65686.6 61767.2 58276.2 55154.6 52251.3 49557 47158.2 45056.9 43123.9 41352.2 39764.4 38376.9 37130.1 36018.5 35016.8 34075.4 33263.8 32580.5 31976.6 31249.5 30651.9 30183.5 29813.1 29105.8 28529.4 28083.6 27769.4 26960.9 26263.1 25694 25252.5 24331.7 23451.4 22695.3 22060.2 21047.6 20018.2 19109.4 18313.4 17279.3 16202.7 15240.8 14384 13415.9 12408.2 11505.7 10698.1 9866.4 9012.37 8248.99 7566.67 6905.74 6240.26 5647.71 5119.91 4628.97 4145.11 3716.14 3335.75 2991.21 2658.6 2364.97 2105.69 1874.95 1656.38 1464.15 1295.07 1146.32 
0.271063 2.71063 393961 404384 414374 423862 432785 441089 448707 455582 461663 466920 471304 474777 477314 478916 479556 479219 477904 475642 472435 468278 463193 457239 450443 442806 434364 425201 415378 404887 393779 382156 370125 357654 344808 331694 318478 305084 291581 278067 264776 251562 238487 225617 213261 201183 189424 178022 167306 157001 147106 137635 128894 120625 112768 105327 98566.8 92276.5 86350.8 80780.4 75781.3 71215.2 66940.9 62946.6 59389 56207.8 53249 50503.3 48058.6 45917.2 43947.4 42141.8 40523.7 39109.7 37839.1 36706.3 35685.4 34726.1 33899 33202.6 32587.1 31846.2 31237.2 30759.8 30382.4 29661.6 29074.2 28619.8 28299.7 27475.7 26764.6 26184.7 25734.7 24796.3 23899.2 23128.6 22481.4 21449.5 20400.5 19474.3 18663.1 17609.3 16512.1 15531.8 14658.6 13672.1 12645.1 11725.4 10902.4 10054.8 9184.46 8406.5 7711.16 7037.6 6359.42 5755.55 5217.67 4717.36 4224.26 3787.1 3399.45 3048.33 2709.37 2410.13 2145.9 1910.75 1688 1492.11 1319.8 1168.21 
0.286215 2.86215 400942 411550 421716 431373 440454 448905 456658 463655 469843 475194 479655 483190 485772 487402 488054 487711 486372 484070 480806 476576 471401 465341 458425 450652 442061 432735 422738 412061 400757 388928 376684 363992 350918 337571 324121 310490 296748 282994 269467 256020 242713 229615 217040 204747 192781 181177 170271 159783 149712 140074 131178 122762 114766 107193 100313 93911.7 87881 82211.8 77124.1 72477.2 68127.1 64062 60441.4 57203.8 54192.6 51398.2 48910.2 46730.9 44726.1 42888.5 41241.7 39802.7 38509.6 37356.7 36317.8 35341.4 34499.7 33790.9 33164.6 32410.5 31790.7 31304.9 30920.8 30187.2 29589.4 29127 28801.1 27962.6 27238.9 26648.6 26190.7 25235.7 24322.7 23538.5 22879.8 21829.6 20762 19819.4 18993.9 17921.3 16804.7 15807 14918.4 13914.4 12869.2 11933.2 11095.6 10233 9347.21 8555.47 7847.8 7162.31 6472.11 5857.54 5310.13 4800.95 4299.12 3854.21 3459.69 3102.34 2757.38 2452.84 2183.93 1944.61 1717.92 1518.55 1343.19 1188.91 
0.302214 3.02214 407411 418190 428521 438333 447561 456148 464026 471136 477424 482861 487394 490987 493610 495266 495928 495580 494220 491881 488564 484266 479007 472849 465821 457923 449193 439717 429559 418710 407223 395203 382762 369865 356580 343018 329351 315500 301536 287560 273815 260151 246630 233320 220542 208051 195891 184100 173018 162361 152128 142334 133295 124743 116618 108923 101932 95426.9 89298.9 83538.2 78368.5 73646.6 69226.3 65095.6 61416.6 58126.8 55067 52227.5 49699.4 47484.9 45447.8 43580.5 41907.2 40444.9 39131 37959.4 36903.7 35911.7 35056.3 34336.1 33699.7 32933.4 32303.7 31810 31419.7 30674.3 30066.8 29596.9 29265.8 28413.7 27678.4 27078.6 26613.3 25642.8 24715.1 23918.3 23249 22181.8 21097 20139.2 19300.3 18210.5 17075.9 16062.1 15159.1 14138.9 13076.8 12125.7 11274.6 10398.1 9498.03 8693.51 7974.42 7277.87 6576.54 5952.05 5395.81 4878.41 4368.48 3916.4 3515.51 3152.4 2801.87 2492.41 2219.16 1975.98 1745.63 1543.05 1364.86 1208.09 
0.319107 3.19107 413242 424175 434653 444606 453966 462676 470667 477878 484257 489771 494369 498013 500674 502354 503026 502672 501293 498920 495556 491196 485862 479616 472488 464477 455622 446010 435707 424702 413051 400859 388239 375158 361683 347927 334064 320015 305851 291676 277734 263874 250159 236659 223698 211028 198695 186735 175494 164685 154305 144371 135203 126528 118286 110482 103391 96792.6 90576.9 84733.8 79490 74700.5 70217 66027.2 62295.5 58958.6 55855 52974.9 50410.7 48164.5 46098.2 44204.2 42506.9 41023.8 39691 38502.7 37431.9 36425.6 35558 34827.5 34182 33404.8 32766 32265.2 31869.3 31113.2 30497.1 30020.5 29684.7 28820.4 28074.5 27466.1 26994.2 26009.8 25068.8 24260.6 23581.7 22499.2 21398.9 20427.4 19576.5 18471.1 17320.2 16292 15376 14341.2 13264 12299.2 11435.9 10546.9 9633.96 8817.92 8088.54 7382.03 6670.65 6037.23 5473.03 4948.23 4431 3972.44 3565.82 3197.51 2841.96 2528.08 2250.92 2004.26 1770.62 1565.13 1384.39 1225.38 
0.336945 3.36945 418292 429358 439965 450040 459513 468330 476419 483718 490174 495756 500411 504099 506793 508493 509173 508815 507418 505017 501611 497199 491799 485477 478262 470153 461190 451461 441031 429892 418098 405758 392984 379743 366103 352179 338146 323925 309589 295240 281128 267098 253216 239551 226432 213607 201123 189016 177639 166697 156191 146135 136855 128074 119732 111832 104654 97975.4 91683.7 85769.2 80461.4 75613.4 71075.1 66834.1 63056.8 59679.1 56537.6 53622.3 51026.7 48753 46661.5 44744.4 43026.3 41525.1 40176 38973.2 37889.3 36870.7 35992.5 35253.1 34599.7 33813 33166.4 32659.5 32258.8 31493.5 30869.8 30387.4 30047.4 29172.5 28417.5 27801.8 27324 26327.7 25375.2 24557 23869.8 22774.2 21660.4 20677 19815.7 18696.8 17531.9 16491 15563.9 14516.5 13426.1 12449.5 11575.7 10675.8 9751.68 8925.68 8187.39 7472.24 6752.17 6111 5539.91 5008.7 4485.15 4020.99 3609.39 3236.59 2876.69 2558.98 2278.43 2028.76 1792.25 1584.26 1401.31 1240.36 
0.35578 3.5578 422404 433579 444290 454464 464031 472934 481102 488473 494993 500630 505330 509054 511775 513491 514178 513817 512407 509982 506542 502086 496634 490250 482963 474775 465723 455899 445367 434118 422209 409747 396847 383476 369702 355641 341470 327110 312632 298142 283891 269724 255705 241906 228657 215707 203100 190875 179385 168336 157726 147572 138200 129333 120909 112931 105683 98938.5 92585 86612.4 81252.4 76356.7 71773.8 67491.1 63676.6 60265.8 57093.4 54149.4 51528.3 49232.3 47120.2 45184.2 43449.3 41933.3 40570.9 39356.3 38261.8 37233.2 36346.4 35599.7 34939.8 34145.4 33492.4 32980.6 32575.9 31803 31173.3 30686.1 30342.8 29459.3 28696.9 28075.1 27592.6 26586.5 25624.6 24798.4 24104.5 22998.1 21873.3 20880.3 20010.5 18880.6 17704.2 16653.2 15716.9 14659.2 13558.1 12571.9 11689.5 10780.7 9847.55 9013.42 8267.87 7545.69 6818.55 6171.08 5594.37 5057.93 4529.24 4060.52 3644.87 3268.4 2904.97 2584.13 2300.83 2048.7 1809.87 1599.83 1415.09 1252.55 
0.375667 3.75667 425407 436662 447449 457695 467330 476297 484523 491946 498513 504190 508923 512674 515414 517143 517834 517471 516050 513608 510144 505657 500165 493736 486397 478151 469035 459140 448533 437205 425211 412660 399669 386202 372331 358170 343899 329436 314855 300262 285910 271642 257524 243626 230283 217241 204544 192232 180661 169533 158848 148621 139183 130253 121769 113734 106434 99642.1 93243.4 87228.3 81830.2 76899.7 72284.2 67971 64129.4 60694.3 57499.4 54534.5 51894.7 49582.4 47455.3 45505.5 43758.3 42231.5 40859.4 39636.2 38533.8 37498 36604.8 35852.8 35188.3 34388.2 33730.6 33215.1 32807.5 32029.2 31394.9 30904.3 30558.6 29668.8 28901 28274.7 27788.9 26775.5 25806.9 24974.8 24275.9 23161.6 22028.8 21028.8 20152.8 19014.9 17830.1 16771.6 15828.7 14763.4 13654.5 12661.3 11772.6 10857.4 9917.57 9077.51 8326.66 7599.35 6867.03 6214.96 5634.15 5093.9 4561.45 4089.39 3670.79 3291.64 2925.63 2602.51 2317.19 2063.27 1822.74 1611.21 1425.15 1261.46 
0.396666 3.96666 427121 438422 449252 459540 469213 478217 486475 493929 500522 506221 510974 514740 517491 519227 519921 519556 518130 515678 512200 507694 502181 495725 488358 480077 470925 460991 450341 438967 426924 414323 401279 387759 373831 359613 345284 330763 316124 301472 287062 272737 258561 244607 231211 218116 205368 193006 181389 170216 159488 149220 139744 130778 122259 114193 106863 100044 93619.1 87579.8 82159.9 77209.6 72575.4 68244.9 64387.9 60938.9 57731.1 54754.2 52103.8 49782.2 47646.5 45688.9 43934.6 42401.6 41024.1 39795.9 38689.1 37649.1 36752.3 35997.3 35330.1 34526.7 33866.5 33348.9 32939.7 32158.3 31521.4 31028.8 30681.7 29788.4 29017.4 28388.7 27900.8 26883.4 25910.8 25075.4 24373.7 23254.9 22117.6 21113.5 20234 19091.5 17902 16839.2 15892.5 14822.9 13709.5 12712.3 11820 10901.1 9957.54 9114.09 8360.22 7629.97 6894.7 6240 5656.85 5114.43 4579.83 4105.87 3685.58 3304.91 2937.42 2613 2326.53 2071.58 1830.09 1617.7 1430.89 1266.54 
0.418839 4.18839 427360 438666 449503 459796 469475 478483 486747 494204 500801 506504 511259 515027 517779 519516 520211 519846 518419 515965 512486 507977 502461 496002 488630 480345 471188 461248 450592 439211 427162 414554 401503 387975 374039 359813 345477 330948 316300 301640 287222 272889 258706 244744 231340 218238 205483 193114 181490 170311 159577 149304 139822 130851 122328 114256 106923 100099 93671.3 87628.6 82205.7 77252.6 72615.9 68283 64423.8 60972.9 57763.3 54784.7 52132.9 49809.9 47673.1 45714.4 43959.1 42425.3 41047 39818.1 38710.7 37670 36772.8 36017.4 35349.8 34546 33885.4 33367.5 32958.1 32176.2 31539 31046.1 30698.8 29805 29033.6 28404.5 27916.4 26898.4 25925.3 25089.4 24387.3 23267.9 22129.9 21125.3 20245.3 19102.1 17912 16848.6 15901.4 14831.2 13717.1 12719.4 11826.6 10907.2 9963.09 9119.18 8364.88 7634.22 6898.55 6243.48 5660.01 5117.28 4582.38 4108.16 3687.64 3306.75 2939.06 2614.45 2327.82 2072.74 1831.11 1618.6 1431.69 1267.25 
0.442251 4.42251 425898 437166 447965 458223 467869 476847 485082 492514 499088 504771 509510 513266 516008 517739 518432 518068 516646 514201 510733 506240 500743 494305 486959 478702 469576 459670 449051 437709 425701 413136 400130 386648 372760 358583 344295 329816 315218 300609 286240 271956 257821 243907 230549 217492 204780 192454 180869 169729 159031 148793 139343 130403 121909 113866 106557 99757 93351 87328.9 81924.6 76988.4 72367.6 68049.5 64203.4 60764.3 57565.7 54597.4 51954.6 49639.6 47510 45558 43808.8 42280.2 40906.6 39681.9 38578.3 37541.2 36647.1 35894.2 35228.9 34427.8 33769.5 33253.4 32845.4 32066.1 31431.2 30939.9 30593.8 29703 28934.3 28307.3 27820.9 26806.4 25836.6 25003.6 24303.9 23188.3 22054.3 21053.1 20176.1 19036.8 17850.7 16790.9 15847 14780.5 13670.2 12675.9 11786.2 10869.9 9929.02 9087.99 8336.27 7608.12 6874.96 6222.13 5640.65 5099.78 4566.71 4094.11 3675.03 3295.44 2929 2605.51 2319.86 2065.65 1824.84 1613.07 1426.79 1262.91 
0.466973 4.66973 422612 433793 444509 454688 464259 473167 481339 488714 495237 500876 505579 509305 512027 513745 514431 514070 512659 510233 506792 502334 496879 490491 483201 475009 465953 456123 445586 434332 422417 409949 397043 383665 369884 355816 341639 327271 312786 298289 284031 269857 255831 242025 228770 215813 203200 190969 179474 168419 157804 147645 138268 129397 120969 112987 105735 98987.3 92630.7 86655.1 81292.5 76394.4 71809.2 67524.4 63708 60295.5 57121.5 54176.1 51553.7 49256.6 47143.5 45206.5 43470.7 41954 40590.9 39375.7 38280.6 37251.6 36364.3 35617.2 34957 34162.2 33508.9 32996.8 32591.9 31818.7 31188.6 30701.2 30357.8 29473.8 28711 28088.9 27606.3 26599.6 25637.3 24810.7 24116.4 23009.4 21884.1 20890.6 20020.4 18889.9 17713 16661.4 15724.7 14666.4 13564.7 12578.1 11695.2 10786 9852.4 9017.87 8271.95 7549.41 6821.91 6174.12 5597.13 5060.43 4531.47 4062.52 3646.67 3270.01 2906.4 2585.41 2301.96 2049.71 1810.76 1600.62 1415.78 1253.17 
0.493075 4.93075 417317 428359 438940 448991 458443 467240 475309 482591 489033 494602 499245 502925 505612 507308 507987 507630 506237 503841 500443 496041 490654 484347 477148 469058 460116 450409 440004 428891 417125 404813 392069 378858 365250 351358 337359 323171 308868 294552 280473 266476 252626 238993 225904 213110 200654 188576 177225 166309 155827 145795 136536 127776 119453 111571 104410 97747.2 91470.2 85569.5 80274 75437.3 70909.6 66678.5 62909.9 59540.1 56405.9 53497.4 50907.8 48639.5 46552.8 44640.2 42926.1 41428.4 40082.4 38882.4 37801 36784.9 35908.7 35171 34519.1 33734.2 33089.1 32583.5 32183.6 31420.1 30797.9 30316.6 29977.4 29104.6 28351.4 27737 27260.4 26266.3 25316.1 24499.8 23814.3 22721.1 21609.9 20628.9 19769.6 18653.3 17491.1 16452.6 15527.7 14482.7 13394.8 12420.5 11548.7 10650.9 9728.97 8904.89 8168.32 7454.83 6736.44 6096.77 5527.01 4997.03 4474.7 4011.62 3600.99 3229.05 2869.99 2553.02 2273.12 2024.03 1788.08 1580.57 1398.05 1237.47 
0.520637 5.20637 409885 420730 431123 440995 450279 458919 466844 473997 480324 485793 490354 493968 496608 498274 498940 498590 497221 494868 491531 487207 481916 475721 468650 460704 451921 442388 432168 421253 409696 397604 385086 372111 358745 345101 331351 317416 303367 289307 275478 261731 248127 234737 221881 209315 197081 185218 174069 163347 153052 143199 134104 125500 117326 109585 102551 96006.4 89841.2 84045.6 78844.4 74093.8 69646.7 65491 61789.6 58479.8 55401.4 52544.7 50001.2 47773.3 45723.8 43845.2 42161.7 40690.6 39368.6 38190 37127.9 36129.8 35269.2 34544.7 33904.4 33133.5 32499.8 32003.2 31610.5 30860.6 30249.4 29776.7 29443.6 28586.3 27846.4 27243.1 26774.9 25798.6 24865.2 24063.5 23390.2 22316.5 21225.1 20261.5 19417.5 18321.1 17179.6 16159.6 15251.2 14224.7 13156.3 12199.3 11343 10461.2 9555.71 8746.3 8022.85 7322.07 6616.48 5988.19 5428.58 4908.04 4395.01 3940.18 3536.86 3171.54 2818.88 2507.55 2232.64 1987.98 1756.24 1552.42 1373.15 1215.43 
0.54974 5.4974 400230 410819 420968 430608 439672 448109 455848 462832 469009 474350 478804 482333 484910 486537 487187 486845 485509 483211 479953 475730 470564 464515 457611 449852 441276 431967 421988 411330 400046 388238 376015 363346 350295 336972 323546 309939 296221 282492 268989 255566 242283 229207 216655 204384 192438 180855 169969 159500 149447 139826 130946 122544 114562 107003 100135 93745 87725 82065.9 76987.2 72348.5 68006.2 63948.3 60334.1 57102.3 54096.4 51307 48823.4 46648 44646.7 42812.4 41168.5 39732.1 38441.3 37290.4 36253.3 35278.7 34438.4 33731 33105.7 32353 31734.3 31249.3 30865.9 30133.6 29536.9 29075.3 28750 27912.9 27190.5 26601.3 26144.2 25190.9 24279.5 23496.7 22839.2 21790.8 20725.1 19784.3 18960.1 17889.5 16774.9 15779 14891.9 13889.7 12846.4 11912 11075.9 10214.8 9330.62 8540.28 7833.87 7149.6 6460.62 5847.14 5300.7 4792.43 4291.49 3847.37 3453.54 3096.84 2752.48 2448.48 2180.05 1941.16 1714.87 1515.85 1340.8 1186.8 
0.58047 5.8047 388323 398597 408443 417796 426591 434777 442285 449062 455056 460237 464558 467983 470483 472061 472693 472361 471064 468835 465673 461577 456564 450695 443996 436468 428148 419115 409433 399092 388144 376687 364828 352536 339873 326947 313920 300718 287408 274087 260986 247962 235074 222388 210209 198303 186713 175474 164912 154754 145000 135666 127050 118898 111154 103820 97156.1 90955.9 85115 79624.3 74696.7 70196 65982.9 62045.7 58539 55403.4 52486.9 49780.5 47370.8 45260.1 43318.4 41538.7 39943.7 38550 37297.6 36180.9 35174.7 34229.1 33413.8 32727.4 32120.8 31390.4 30790.1 30319.6 29947.6 29237.1 28658.1 28210.2 27894.7 27082.5 26381.5 25809.9 25366.4 24441.4 23557.2 22797.6 22159.7 21142.5 20108.5 19195.6 18396 17357.3 16275.8 15309.5 14448.9 13476.4 12464.2 11557.6 10746.3 9910.9 9053.02 8286.19 7600.8 6936.88 6268.41 5673.18 5143 4649.84 4163.81 3732.9 3350.8 3004.7 2670.59 2375.64 2115.19 1883.4 1663.85 1470.75 1300.91 1151.49 
0.612917 6.12917 374199 384100 393588 402601 411076 418964 426199 432729 438505 443498 447662 450962 453372 454892 455501 455181 453931 451783 448737 444789 439959 434303 427848 420594 412576 403872 394542 384577 374027 362987 351559 339714 327512 315055 302502 289780 276955 264119 251494 238944 226525 214300 202563 191091 179922 169092 158914 149126 139727 130731 122429 114574 107111 100044 93622.5 87647.8 82019.4 76728.3 71980 67643 63583.1 59789.1 56409.9 53388.3 50578 47970 45647.9 43614 41742.9 40027.9 38490.9 37147.9 35941 34865 33895.4 32984.2 32198.6 31537.1 30952.5 30248.7 29670.3 29216.9 28858.4 28173.7 27615.8 27184.2 26880.1 26097.5 25422 24871.2 24443.8 23552.5 22700.4 21968.5 21353.7 20373.6 19377.2 18497.5 17727 16726 15683.9 14752.7 13923.3 12986.3 12010.8 11137.2 10355.5 9550.44 8723.76 7984.82 7324.35 6684.59 6040.42 5466.84 4955.95 4480.73 4012.37 3597.14 3228.93 2895.42 2573.46 2289.23 2038.26 1814.9 1603.33 1417.26 1253.6 1109.61 
0.647178 6.47178 357997 367468 376546 385168 393276 400823 407745 413992 419518 424295 428279 431435 433741 435196 435777 435472 434276 432221 429306 425530 420909 415498 409322 402382 394711 386384 377458 367925 357831 347270 336337 325004 313331 301414 289404 277233 264963 252682 240604 228597 216716 205020 193792 182817 172132 161771 152033 142669 133676 125071 117128 109613 102473 95711.8 89568.7 83852.6 78467.9 73406 68863.2 64714 60829.9 57200.3 53967.4 51076.6 48387.9 45892.9 43671.4 41725.5 39935.5 38294.7 36824.3 35539.4 34384.8 33355.4 32427.7 31556 30804.4 30171.5 29612.3 28939 28385.6 27951.8 27608.8 26953.8 26420 26007.1 25716.2 24967.4 24321.3 23794.3 23385.4 22532.6 21717.5 21017.2 20429.1 19491.4 18538.1 17696.5 16959.4 16001.7 15004.7 14113.9 13320.5 12424 11490.8 10655 9907.09 9136.9 8346.02 7639.08 7007.21 6395.14 5778.87 5230.13 4741.35 4286.71 3838.63 3441.38 3089.11 2770.05 2462.03 2190.11 1950 1736.32 1533.91 1355.89 1199.32 1061.56 
0.683354 6.83354 339876 348868 357486 365672 373370 380534 387106 393037 398283 402819 406601 409598 411786 413168 413720 413430 412295 410343 407576 403991 399604 394467 388604 382015 374732 366827 358353 349302 339719 329692 319313 308554 297471 286157 274755 263200 251551 239893 228426 217027 205747 194643 183983 173563 163419 153582 144338 135447 126910 118740 111199 104065 97286.3 90867.2 85035 79608.3 74496.2 69690.4 65377.6 61438.4 57750.9 54305 51235.8 48491.3 45938.7 43569.9 41460.9 39613.5 37914.1 36356.3 34960.4 33740.5 32644.4 31667 30786.3 29958.7 29245.2 28644.4 28113.4 27474.2 26948.8 26537 26211.3 25589.5 25082.8 24690.8 24414.6 23703.7 23090.2 22589.9 22201.7 21392.1 20618.2 19953.4 19395.1 18504.8 17599.8 16800.8 16101 15191.8 14245.3 13399.5 12646.2 11795.1 10909.1 10115.7 9405.63 8674.43 7923.57 7252.42 6652.53 6071.45 5486.37 4965.4 4501.36 4069.74 3644.34 3267.19 2932.75 2629.84 2337.41 2079.26 1851.3 1648.43 1456.27 1287.26 1138.61 1007.83 
0.721552 7.21552 320115 328585 336702 344412 351662 358410 364600 370186 375127 379398 382961 385783 387845 389146 389666 389392 388324 386486 383880 380502 376370 371532 366010 359804 352945 345499 337518 328993 319968 310523 300748 290614 280176 269520 258781 247898 236926 225945 215145 204409 193784 183326 173286 163472 153918 144653 135946 127572 119532 111836 104734 98014.2 91630 85584.1 80091 74979.8 70164.9 65638.6 61576.5 57866.4 54393.2 51147.6 48256.9 45672 43267.8 41036.7 39050.3 37310.3 35709.7 34242.5 32927.7 31778.8 30746.4 29825.9 28996.4 28216.9 27544.8 26979 26478.9 25876.8 25382 24994.1 24687.4 24101.7 23624.4 23255.2 22995.1 22325.5 21747.7 21276.5 20910.9 20148.4 19419.4 18793.3 18267.4 17428.9 16576.5 15824 15164.8 14308.5 13417 12620.5 11911 11109.4 10274.9 9527.53 8858.78 8170.09 7462.89 6830.76 6265.75 5718.45 5167.39 4676.71 4239.65 3833.12 3432.45 3077.23 2762.24 2476.93 2201.51 1958.37 1743.66 1552.59 1371.6 1212.42 1072.41 949.235 
0.761886 7.61886 299043 306955 314538 321740 328513 334817 340599 345817 350433 354424 357751 360388 362314 363529 364015 363760 362761 361044 358610 355455 351595 347075 341917 336119 329712 322756 315300 307336 298905 290082 280950 271484 261732 251778 241746 231579 221330 211072 200983 190953 181028 171258 161879 152711 143786 135131 126997 119174 111663 104474 97839.5 91562.2 85598.2 79950.4 74818.8 70044.1 65546.1 61317.7 57523.1 54057.2 50812.7 47780.7 45080.2 42665.5 40419.6 38335.4 36479.8 34854.3 33359 31988.5 30760.2 29686.9 28722.4 27862.5 27087.6 26359.5 25731.6 25203 24735.8 24173.4 23711.1 23348.8 23062.3 22515.2 22069.3 21724.4 21481.4 20855.9 20316.1 19875.9 19534.4 18822 18141.1 17556.2 17064.9 16281.6 15485.3 14782.3 14166.6 13366.6 12533.8 11789.7 11126.9 10378.1 9598.51 8900.35 8275.63 7632.27 6971.63 6381.1 5853.29 5342.02 4827.23 4368.85 3960.57 3580.79 3206.5 2874.67 2580.41 2313.88 2056.59 1829.45 1628.88 1450.39 1281.31 1132.61 1001.82 886.75 
0.804474 8.04474 277034 284364 291388 298061 304335 310175 315531 320366 324642 328339 331421 333864 335648 336774 337224 336988 336063 334472 332217 329294 325718 321531 316752 311382 305445 299002 292094 284717 276906 268733 260273 251503 242469 233248 223954 214535 205040 195537 186191 176899 167705 158654 149965 141472 133203 125185 117650 110403 103445 96785.3 90638.7 84823.4 79298.3 74066.2 69312.3 64889 60722 56804.9 53289.5 50078.7 47072.9 44264.2 41762.4 39525.4 37444.8 35514 33794.9 32289.1 30903.9 29634.2 28496.3 27502 26608.5 25811.9 25094 24419.4 23837.8 23348.1 22915.3 22394.3 21966 21630.4 21364.9 20858.1 20445 20125.5 19900.4 19320.9 18820.9 18413.1 18096.7 17436.8 16806 16264.1 15809 15083.3 14345.6 13694.4 13123.9 12382.9 11611.4 10922 10308 9614.24 8892.07 8245.3 7666.56 7070.55 6458.53 5911.47 5422.5 4948.85 4471.95 4047.31 3669.07 3317.25 2970.51 2663.1 2390.5 2143.59 1905.23 1694.81 1509 1343.64 1187.01 1049.25 928.086 821.486 
0.849442 8.49442 254489 261222 267675 273805 279569 284933 289854 294295 298223 301619 304451 306695 308333 309368 309781 309564 308714 307253 305181 302496 299211 295365 290975 286042 280589 274669 268324 261547 254372 246864 239092 231036 222737 214266 205729 197077 188354 179624 171039 162503 154057 145743 137761 129959 122363 114998 108076 101419 95026.6 88909 83262.6 77920.5 72845.1 68038.7 63671.7 59608.4 55780.5 52182.1 48952.8 46003.3 43242.2 40662 38363.8 36308.9 34397.6 32623.9 31044.7 29661.4 28388.9 27222.6 26177.3 25263.9 24443.1 23711.4 23051.9 22432.2 21897.9 21448.1 21050.5 20571.9 20178.5 19870.1 19626.3 19160.7 18781.2 18487.7 18280.9 17748.6 17289.3 16914.6 16624 16017.8 15438.3 14940.5 14522.5 13855.8 13178.2 12579.9 12055.9 11375.2 10666.4 10033.2 9469.13 8831.84 8168.44 7574.31 7042.66 6495.15 5932.94 5430.4 4981.22 4546.12 4108.03 3717.94 3370.49 3047.3 2728.77 2446.38 2195.96 1969.14 1750.18 1556.89 1386.2 1234.3 1090.41 963.866 852.559 754.634 
0.896925 8.96925 231813 237947 243824 249408 254658 259544 264027 268072 271650 274744 277323 279367 280860 281802 282179 281981 281207 279876 277988 275543 272551 269047 265048 260554 255587 250195 244415 238242 231706 224867 217788 210450 202891 195174 187398 179517 171571 163619 155798 148024 140330 132757 125486 118379 111460 104751 98445.8 92382.1 86559.4 80986.9 75843.6 70977.6 66354.4 61976.2 57998.3 54297.1 50810.3 47532.5 44591 41904.2 39389.2 37038.8 34945.5 33073.6 31332.6 29717 28278.5 27018.5 25859.4 24796.9 23844.8 23012.8 22265.2 21598.6 20997.9 20433.4 19946.7 19537 19174.8 18738.8 18380.5 18099.6 17877.5 17453.4 17107.8 16840.4 16652 16167.2 15748.7 15407.5 15142.7 14590.5 14062.7 13609.3 13228.5 12621.2 12004 11459 10981.7 10361.6 9716.01 9139.19 8625.4 8044.9 7440.61 6899.41 6415.13 5916.41 5404.29 4946.53 4537.38 4141.04 3741.99 3386.66 3070.17 2775.77 2485.63 2228.39 2000.29 1793.69 1594.24 1418.16 1262.68 1124.32 993.25 877.982 776.593 687.394 
0.947061 9.47061 209495 215038 220350 225396 230141 234557 238608 242263 245497 248292 250624 252471 253820 254671 255012 254833 254133 252931 251225 249015 246311 243144 239531 235469 230980 226108 220884 215305 209399 203218 196820 190189 183357 176384 169356 162233 155053 147867 140799 133773 126820 119976 113405 106982 100729 94666.2 88967.9 83488 78225.9 73189.9 68541.8 64144.2 59966.1 56009.4 52414.5 49069.6 45918.5 42956.3 40298 37869.9 35597 33472.9 31581.1 29889.4 28316.1 26856 25556 24417.3 23369.8 22409.6 21549.1 20797.2 20121.6 19519.2 18976.3 18466.2 18026.4 17656 17328.8 16934.7 16610.9 16357.1 16156.4 15773.1 15460.7 15219.1 15048.8 14610.7 14232.5 13924.1 13684.9 13185.8 12708.8 12299 11954.9 11406.1 10848.3 10355.8 9924.44 9364.03 8780.6 8259.31 7794.98 7270.37 6724.26 6235.17 5797.51 5346.81 4883.99 4470.3 4100.54 3742.36 3381.73 3060.61 2774.58 2508.53 2246.32 2013.86 1807.71 1621 1440.75 1281.63 1141.12 1016.07 897.625 793.454 701.827 621.215 
1 10 187903 192875 197639 202165 206421 210382 214015 217294 220194 222702 224793 226450 227660 228423 228729 228568 227941 226862 225332 223350 220924 218084 214843 211200 207174 202804 198118 193114 187817 182273 176535 170587 164459 158204 151901 145513 139072 132627 126287 119985 113749 107610 101717 95955.9 90347.6 84909.3 79798.3 74883.1 70163.4 65646.4 61477.4 57533 53785.6 50236.7 47012.3 44012.1 41185.8 38528.9 36144.6 33966.8 31928.1 30023 28326.1 26808.8 25397.6 24088 22922 21900.7 20961.1 20099.9 19328.1 18653.7 18047.7 17507.4 17020.5 16562.9 16168.4 15836.3 15542.7 15189.3 14898.9 14671.2 14491.2 14147.4 13867.2 13650.5 13497.8 13104.8 12765.6 12489 12274.4 11826.8 11399 11031.4 10722.7 10230.5 9730.2 9288.47 8901.56 8398.91 7875.61 7408.05 6991.58 6521.04 6031.21 5592.53 5199.98 4795.73 4380.62 4009.56 3677.91 3356.65 3033.19 2745.16 2488.62 2249.99 2014.8 1806.29 1621.4 1453.93 1292.26 1149.53 1023.51 911.35 805.109 711.675 629.492 557.188 
